{"clinicalData":{"studyOID":"UpdatedCDISCPILOT.CDISC SDTM.3.2","metaDataVersionOID":"MDV.UpdatedCDISCPILOT.CDISC SDTM.3.2","itemGroupData":{"IG.CM":{"records":7510,"name":"CM","label":"Concomitant Medications","items":[{"OID":"ITEMGROUPDATASEQ","name":"ITEMGROUPDATASEQ","label":"Record identifier","type":"integer"},{"OID":"IT.CM.STUDYID","name":"STUDYID","label":"Study Identifier","type":"string","length":12},{"OID":"IT.CM.DOMAIN","name":"DOMAIN","label":"Domain Abbreviation","type":"string","length":2},{"OID":"IT.CM.USUBJID","name":"USUBJID","label":"Unique Subject Identifier","type":"string","length":11},{"OID":"IT.CM.CMSEQ","name":"CMSEQ","label":"Sequence Number","type":"integer","length":8},{"OID":"IT.CM.CMSPID","name":"CMSPID","label":"Sponsor-Defined Identifier","type":"string","length":2},{"OID":"IT.CM.CMTRT","name":"CMTRT","label":"Reported Name of Drug, Med, or Therapy","type":"string","length":44},{"OID":"IT.CM.CMDECOD","name":"CMDECOD","label":"Standardized Medication Name","type":"string","length":24},{"OID":"IT.CM.CMINDC","name":"CMINDC","label":"Indication","type":"string","length":34},{"OID":"IT.CM.CMCLAS","name":"CMCLAS","label":"Medication Class","type":"string","length":42},{"OID":"IT.CM.CMDOSE","name":"CMDOSE","label":"Dose per Administration","type":"integer","length":8},{"OID":"IT.CM.CMDOSU","name":"CMDOSU","label":"Dose Units","type":"string","length":17},{"OID":"IT.CM.CMDOSFRQ","name":"CMDOSFRQ","label":"Dosing Frequency per Interval","type":"string","length":15},{"OID":"IT.CM.CMROUTE","name":"CMROUTE","label":"Route of Administration","type":"string","length":200},{"OID":"IT.CM.VISITNUM","name":"VISITNUM","label":"Visit Number","type":"float","length":8},{"OID":"IT.CM.VISIT","name":"VISIT","label":"Visit Name","type":"string","length":19},{"OID":"IT.CM.VISITDY","name":"VISITDY","label":"Planned Study Day of Visit","type":"integer","length":8},{"OID":"IT.CM.EPOCH","name":"EPOCH","label":"Epoch","type":"string","length":9},{"OID":"IT.CM.CMDTC","name":"CMDTC","label":"Date/Time of Collection","type":"string","length":10},{"OID":"IT.CM.CMSTDTC","name":"CMSTDTC","label":"Start Date/Time of Medication","type":"string","length":10},{"OID":"IT.CM.CMENDTC","name":"CMENDTC","label":"End Date/Time of Medication","type":"string","length":10},{"OID":"IT.CM.CMDY","name":"CMDY","label":"Study Day of Visit/Collection/Exam","type":"integer","length":8},{"OID":"IT.CM.CMSTDY","name":"CMSTDY","label":"Study Day of Start of Medication","type":"integer","length":8},{"OID":"IT.CM.CMENDY","name":"CMENDY","label":"Study Day of End of Medication","type":"integer","length":8}],"itemData":[[1,"CDISCPILOT01","CM","01-701-1015",1,"1","ASPIRIN","ACETYLSALICYLIC ACID","","NERVOUS SYSTEM",1,"TABLET","PRN","ORAL",1,"SCREENING 1",-7,"SCREENING","2013-12-26","2003","",-7,null,null],[2,"CDISCPILOT01","CM","01-701-1015",2,"4","TYLENOL","UNCODED","","UNCODED",1,"TABLET","PRN","ORAL",1,"SCREENING 1",-7,"SCREENING","2013-12-26","2003","",-7,null,null],[3,"CDISCPILOT01","CM","01-701-1015",3,"3","PREMARIN","ESTROGENS CONJUGATED","PROPHYLAXIS OR NON-THERAPEUTIC USE","GENITO URINARY SYSTEM AND SEX HORMONES",0.625,"mg","QD","ORAL",1,"SCREENING 1",-7,"SCREENING","2013-12-26","2006","",-7,null,null],[4,"CDISCPILOT01","CM","01-701-1015",4,"2","CALCIUM","CALCIUM","PROPHYLAXIS OR NON-THERAPEUTIC USE","ALIMENTARY TRACT AND METABOLISM",1,"TABLET","QD","ORAL",1,"SCREENING 1",-7,"SCREENING","2013-12-26","2013","",-7,null,null],[5,"CDISCPILOT01","CM","01-701-1015",5,"1","ASPIRIN","ACETYLSALICYLIC ACID","","NERVOUS SYSTEM",1,"TABLET","PRN","ORAL",2,"SCREENING 2",-1,"SCREENING","2013-12-31","2003","",-2,null,null],[6,"CDISCPILOT01","CM","01-701-1015",6,"4","TYLENOL","UNCODED","","UNCODED",1,"TABLET","PRN","ORAL",2,"SCREENING 2",-1,"SCREENING","2013-12-31","2003","",-2,null,null],[7,"CDISCPILOT01","CM","01-701-1015",7,"3","PREMARIN","ESTROGENS CONJUGATED","PROPHYLAXIS OR NON-THERAPEUTIC USE","GENITO URINARY SYSTEM AND SEX HORMONES",0.625,"mg","QD","ORAL",2,"SCREENING 2",-1,"SCREENING","2013-12-31","2006","",-2,null,null],[8,"CDISCPILOT01","CM","01-701-1015",8,"2","CALCIUM","CALCIUM","PROPHYLAXIS OR NON-THERAPEUTIC USE","ALIMENTARY TRACT AND METABOLISM",1,"TABLET","QD","ORAL",2,"SCREENING 2",-1,"SCREENING","2013-12-31","2013","",-2,null,null],[9,"CDISCPILOT01","CM","01-701-1015",9,"1","ASPIRIN","ACETYLSALICYLIC ACID","","NERVOUS SYSTEM",1,"TABLET","PRN","ORAL",3,"BASELINE",1,"TREATMENT","2014-01-02","2003","",1,null,null],[10,"CDISCPILOT01","CM","01-701-1015",10,"4","TYLENOL","UNCODED","","UNCODED",1,"TABLET","PRN","ORAL",3,"BASELINE",1,"TREATMENT","2014-01-02","2003","",1,null,null],[11,"CDISCPILOT01","CM","01-701-1015",11,"3","PREMARIN","ESTROGENS CONJUGATED","PROPHYLAXIS OR NON-THERAPEUTIC USE","GENITO URINARY SYSTEM AND SEX HORMONES",0.625,"mg","QD","ORAL",3,"BASELINE",1,"TREATMENT","2014-01-02","2006","",1,null,null],[12,"CDISCPILOT01","CM","01-701-1015",12,"2","CALCIUM","CALCIUM","PROPHYLAXIS OR NON-THERAPEUTIC USE","ALIMENTARY TRACT AND METABOLISM",1,"TABLET","QD","ORAL",3,"BASELINE",1,"TREATMENT","2014-01-02","2013","",1,null,null],[13,"CDISCPILOT01","CM","01-701-1015",13,"1","ASPIRIN","ACETYLSALICYLIC ACID","","NERVOUS SYSTEM",1,"TABLET","PRN","ORAL",4,"WEEK 2",14,"TREATMENT","2014-01-16","2003","",15,null,null],[14,"CDISCPILOT01","CM","01-701-1015",14,"4","TYLENOL","UNCODED","","UNCODED",1,"TABLET","PRN","ORAL",4,"WEEK 2",14,"TREATMENT","2014-01-16","2003","",15,null,null],[15,"CDISCPILOT01","CM","01-701-1015",15,"3","PREMARIN","ESTROGENS CONJUGATED","PROPHYLAXIS OR NON-THERAPEUTIC USE","GENITO URINARY SYSTEM AND SEX HORMONES",0.625,"mg","QD","ORAL",4,"WEEK 2",14,"TREATMENT","2014-01-16","2006","",15,null,null],[16,"CDISCPILOT01","CM","01-701-1015",16,"2","CALCIUM","CALCIUM","PROPHYLAXIS OR NON-THERAPEUTIC USE","ALIMENTARY TRACT AND METABOLISM",1,"TABLET","QD","ORAL",4,"WEEK 2",14,"TREATMENT","2014-01-16","2013","",15,null,null],[17,"CDISCPILOT01","CM","01-701-1015",17,"5","NEOSPORIN /USA/","UNCODED","","UNCODED",1,"TABLET","PRN","TOPICAL",4,"WEEK 2",14,"TREATMENT","2014-01-16","2014-01-03","",15,2,null],[18,"CDISCPILOT01","CM","01-701-1015",18,"1","ASPIRIN","ACETYLSALICYLIC ACID","","NERVOUS SYSTEM",1,"TABLET","PRN","ORAL",5,"WEEK 4",28,"TREATMENT","2014-01-30","2003","",29,null,null],[19,"CDISCPILOT01","CM","01-701-1015",19,"4","TYLENOL","UNCODED","","UNCODED",1,"TABLET","PRN","ORAL",5,"WEEK 4",28,"TREATMENT","2014-01-30","2003","",29,null,null],[20,"CDISCPILOT01","CM","01-701-1015",20,"3","PREMARIN","ESTROGENS CONJUGATED","PROPHYLAXIS OR NON-THERAPEUTIC USE","GENITO URINARY SYSTEM AND SEX HORMONES",0.625,"mg","QD","ORAL",5,"WEEK 4",28,"TREATMENT","2014-01-30","2006","",29,null,null],[21,"CDISCPILOT01","CM","01-701-1015",21,"2","CALCIUM","CALCIUM","PROPHYLAXIS OR NON-THERAPEUTIC USE","ALIMENTARY TRACT AND METABOLISM",1,"TABLET","QD","ORAL",5,"WEEK 4",28,"TREATMENT","2014-01-30","2013","",29,null,null],[22,"CDISCPILOT01","CM","01-701-1015",22,"5","NEOSPORIN /USA/","UNCODED","","UNCODED",1,"TABLET","PRN","TOPICAL",5,"WEEK 4",28,"TREATMENT","2014-01-30","2014-01-03","",29,2,null],[23,"CDISCPILOT01","CM","01-701-1015",23,"1","ASPIRIN","ACETYLSALICYLIC ACID","","NERVOUS SYSTEM",1,"TABLET","PRN","ORAL",6,"AMBUL ECG REMOVAL",30,"TREATMENT","2014-02-01","2003","",31,null,null],[24,"CDISCPILOT01","CM","01-701-1015",24,"4","TYLENOL","UNCODED","","UNCODED",1,"TABLET","PRN","ORAL",6,"AMBUL ECG REMOVAL",30,"TREATMENT","2014-02-01","2003","",31,null,null],[25,"CDISCPILOT01","CM","01-701-1015",25,"3","PREMARIN","ESTROGENS CONJUGATED","PROPHYLAXIS OR NON-THERAPEUTIC USE","GENITO URINARY SYSTEM AND SEX HORMONES",0.625,"mg","QD","ORAL",6,"AMBUL ECG REMOVAL",30,"TREATMENT","2014-02-01","2006","",31,null,null],[26,"CDISCPILOT01","CM","01-701-1015",26,"2","CALCIUM","CALCIUM","PROPHYLAXIS OR NON-THERAPEUTIC USE","ALIMENTARY TRACT AND METABOLISM",1,"TABLET","QD","ORAL",6,"AMBUL ECG REMOVAL",30,"TREATMENT","2014-02-01","2013","",31,null,null],[27,"CDISCPILOT01","CM","01-701-1015",27,"5","NEOSPORIN /USA/","UNCODED","","UNCODED",1,"TABLET","PRN","TOPICAL",6,"AMBUL ECG REMOVAL",30,"TREATMENT","2014-02-01","2014-01-03","",31,2,null],[28,"CDISCPILOT01","CM","01-701-1015",28,"1","ASPIRIN","ACETYLSALICYLIC ACID","","NERVOUS SYSTEM",1,"TABLET","PRN","ORAL",7,"WEEK 6",42,"TREATMENT","2014-02-12","2003","",42,null,null],[29,"CDISCPILOT01","CM","01-701-1015",29,"4","TYLENOL","UNCODED","","UNCODED",1,"TABLET","PRN","ORAL",7,"WEEK 6",42,"TREATMENT","2014-02-12","2003","",42,null,null],[30,"CDISCPILOT01","CM","01-701-1015",30,"3","PREMARIN","ESTROGENS CONJUGATED","PROPHYLAXIS OR NON-THERAPEUTIC USE","GENITO URINARY SYSTEM AND SEX HORMONES",0.625,"mg","QD","ORAL",7,"WEEK 6",42,"TREATMENT","2014-02-12","2006","",42,null,null],[31,"CDISCPILOT01","CM","01-701-1015",31,"2","CALCIUM","CALCIUM","PROPHYLAXIS OR NON-THERAPEUTIC USE","ALIMENTARY TRACT AND METABOLISM",1,"TABLET","QD","ORAL",7,"WEEK 6",42,"TREATMENT","2014-02-12","2013","",42,null,null],[32,"CDISCPILOT01","CM","01-701-1015",32,"5","NEOSPORIN /USA/","UNCODED","","UNCODED",1,"TABLET","PRN","TOPICAL",7,"WEEK 6",42,"TREATMENT","2014-02-12","2014-01-03","",42,2,null],[33,"CDISCPILOT01","CM","01-701-1015",33,"1","ASPIRIN","ACETYLSALICYLIC ACID","","NERVOUS SYSTEM",1,"TABLET","PRN","ORAL",8,"WEEK 8",56,"TREATMENT","2014-03-05","2003","",63,null,null],[34,"CDISCPILOT01","CM","01-701-1015",34,"4","TYLENOL","UNCODED","","UNCODED",1,"TABLET","PRN","ORAL",8,"WEEK 8",56,"TREATMENT","2014-03-05","2003","",63,null,null],[35,"CDISCPILOT01","CM","01-701-1015",35,"3","PREMARIN","ESTROGENS CONJUGATED","PROPHYLAXIS OR NON-THERAPEUTIC USE","GENITO URINARY SYSTEM AND SEX HORMONES",0.625,"mg","QD","ORAL",8,"WEEK 8",56,"TREATMENT","2014-03-05","2006","",63,null,null],[36,"CDISCPILOT01","CM","01-701-1015",36,"2","CALCIUM","CALCIUM","PROPHYLAXIS OR NON-THERAPEUTIC USE","ALIMENTARY TRACT AND METABOLISM",1,"TABLET","QD","ORAL",8,"WEEK 8",56,"TREATMENT","2014-03-05","2013","",63,null,null],[37,"CDISCPILOT01","CM","01-701-1015",37,"5","NEOSPORIN /USA/","UNCODED","","UNCODED",1,"TABLET","PRN","TOPICAL",8,"WEEK 8",56,"TREATMENT","2014-03-05","2014-01-03","",63,2,null],[38,"CDISCPILOT01","CM","01-701-1015",38,"1","ASPIRIN","ACETYLSALICYLIC ACID","","NERVOUS SYSTEM",1,"TABLET","PRN","ORAL",9,"WEEK 12",84,"TREATMENT","2014-03-26","2003","",84,null,null],[39,"CDISCPILOT01","CM","01-701-1015",39,"4","TYLENOL","UNCODED","","UNCODED",1,"TABLET","PRN","ORAL",9,"WEEK 12",84,"TREATMENT","2014-03-26","2003","",84,null,null],[40,"CDISCPILOT01","CM","01-701-1015",40,"3","PREMARIN","ESTROGENS CONJUGATED","PROPHYLAXIS OR NON-THERAPEUTIC USE","GENITO URINARY SYSTEM AND SEX HORMONES",0.625,"mg","QD","ORAL",9,"WEEK 12",84,"TREATMENT","2014-03-26","2006","",84,null,null],[41,"CDISCPILOT01","CM","01-701-1015",41,"2","CALCIUM","CALCIUM","PROPHYLAXIS OR NON-THERAPEUTIC USE","ALIMENTARY TRACT AND METABOLISM",1,"TABLET","QD","ORAL",9,"WEEK 12",84,"TREATMENT","2014-03-26","2013","",84,null,null],[42,"CDISCPILOT01","CM","01-701-1015",42,"5","NEOSPORIN /USA/","UNCODED","","UNCODED",1,"TABLET","PRN","TOPICAL",9,"WEEK 12",84,"TREATMENT","2014-03-26","2014-01-03","",84,2,null],[43,"CDISCPILOT01","CM","01-701-1015",43,"1","ASPIRIN","ACETYLSALICYLIC ACID","","NERVOUS SYSTEM",1,"TABLET","PRN","ORAL",10,"WEEK 16",112,"TREATMENT","2014-05-07","2003","",126,null,null],[44,"CDISCPILOT01","CM","01-701-1015",44,"4","TYLENOL","UNCODED","","UNCODED",1,"TABLET","PRN","ORAL",10,"WEEK 16",112,"TREATMENT","2014-05-07","2003","",126,null,null],[45,"CDISCPILOT01","CM","01-701-1015",45,"3","PREMARIN","ESTROGENS CONJUGATED","PROPHYLAXIS OR NON-THERAPEUTIC USE","GENITO URINARY SYSTEM AND SEX HORMONES",0.625,"mg","QD","ORAL",10,"WEEK 16",112,"TREATMENT","2014-05-07","2006","",126,null,null],[46,"CDISCPILOT01","CM","01-701-1015",46,"2","CALCIUM","CALCIUM","PROPHYLAXIS OR NON-THERAPEUTIC USE","ALIMENTARY TRACT AND METABOLISM",1,"TABLET","QD","ORAL",10,"WEEK 16",112,"TREATMENT","2014-05-07","2013","",126,null,null],[47,"CDISCPILOT01","CM","01-701-1015",47,"5","NEOSPORIN /USA/","UNCODED","","UNCODED",1,"TABLET","PRN","TOPICAL",10,"WEEK 16",112,"TREATMENT","2014-05-07","2014-01-03","",126,2,null],[48,"CDISCPILOT01","CM","01-701-1015",48,"6","HYDROCORTISONE","HYDROCORTISONE","","SYSTEMIC HORMONAL PREPARATIONS, EXCL.",1,"TABLET","PRN","TOPICAL",10,"WEEK 16",112,"TREATMENT","2014-05-07","2014-03-27","",126,85,null],[49,"CDISCPILOT01","CM","01-701-1015",49,"1","ASPIRIN","ACETYLSALICYLIC ACID","","NERVOUS SYSTEM",1,"TABLET","PRN","ORAL",11,"WEEK 20",140,"TREATMENT","2014-05-21","2003","",140,null,null],[50,"CDISCPILOT01","CM","01-701-1015",50,"4","TYLENOL","UNCODED","","UNCODED",1,"TABLET","PRN","ORAL",11,"WEEK 20",140,"TREATMENT","2014-05-21","2003","",140,null,null],[51,"CDISCPILOT01","CM","01-701-1015",51,"3","PREMARIN","ESTROGENS CONJUGATED","PROPHYLAXIS OR NON-THERAPEUTIC USE","GENITO URINARY SYSTEM AND SEX HORMONES",0.625,"mg","QD","ORAL",11,"WEEK 20",140,"TREATMENT","2014-05-21","2006","",140,null,null],[52,"CDISCPILOT01","CM","01-701-1015",52,"2","CALCIUM","CALCIUM","PROPHYLAXIS OR NON-THERAPEUTIC USE","ALIMENTARY TRACT AND METABOLISM",1,"TABLET","QD","ORAL",11,"WEEK 20",140,"TREATMENT","2014-05-21","2013","",140,null,null],[53,"CDISCPILOT01","CM","01-701-1015",53,"5","NEOSPORIN /USA/","UNCODED","","UNCODED",1,"TABLET","PRN","TOPICAL",11,"WEEK 20",140,"TREATMENT","2014-05-21","2014-01-03","",140,2,null],[54,"CDISCPILOT01","CM","01-701-1015",54,"6","HYDROCORTISONE","HYDROCORTISONE","","SYSTEMIC HORMONAL PREPARATIONS, EXCL.",1,"TABLET","PRN","TOPICAL",11,"WEEK 20",140,"TREATMENT","2014-05-21","2014-03-27","",140,85,null],[55,"CDISCPILOT01","CM","01-701-1015",55,"1","ASPIRIN","ACETYLSALICYLIC ACID","","NERVOUS SYSTEM",1,"TABLET","PRN","ORAL",12,"WEEK 24",168,"TREATMENT","2014-06-18","2003","",168,null,null],[56,"CDISCPILOT01","CM","01-701-1015",56,"4","TYLENOL","UNCODED","","UNCODED",1,"TABLET","PRN","ORAL",12,"WEEK 24",168,"TREATMENT","2014-06-18","2003","",168,null,null],[57,"CDISCPILOT01","CM","01-701-1015",57,"3","PREMARIN","ESTROGENS CONJUGATED","PROPHYLAXIS OR NON-THERAPEUTIC USE","GENITO URINARY SYSTEM AND SEX HORMONES",0.625,"mg","QD","ORAL",12,"WEEK 24",168,"TREATMENT","2014-06-18","2006","",168,null,null],[58,"CDISCPILOT01","CM","01-701-1015",58,"2","CALCIUM","CALCIUM","PROPHYLAXIS OR NON-THERAPEUTIC USE","ALIMENTARY TRACT AND METABOLISM",1,"TABLET","QD","ORAL",12,"WEEK 24",168,"TREATMENT","2014-06-18","2013","",168,null,null],[59,"CDISCPILOT01","CM","01-701-1015",59,"5","NEOSPORIN /USA/","UNCODED","","UNCODED",1,"TABLET","PRN","TOPICAL",12,"WEEK 24",168,"TREATMENT","2014-06-18","2014-01-03","",168,2,null],[60,"CDISCPILOT01","CM","01-701-1015",60,"6","HYDROCORTISONE","HYDROCORTISONE","","SYSTEMIC HORMONAL PREPARATIONS, EXCL.",1,"TABLET","PRN","TOPICAL",12,"WEEK 24",168,"TREATMENT","2014-06-18","2014-03-27","",168,85,null],[61,"CDISCPILOT01","CM","01-701-1015",61,"1","ASPIRIN","ACETYLSALICYLIC ACID","","NERVOUS SYSTEM",1,"TABLET","PRN","ORAL",13,"WEEK 26",182,"TREATMENT","2014-07-02","2003","",182,null,null],[62,"CDISCPILOT01","CM","01-701-1015",62,"4","TYLENOL","UNCODED","","UNCODED",1,"TABLET","PRN","ORAL",13,"WEEK 26",182,"TREATMENT","2014-07-02","2003","",182,null,null],[63,"CDISCPILOT01","CM","01-701-1015",63,"3","PREMARIN","ESTROGENS CONJUGATED","PROPHYLAXIS OR NON-THERAPEUTIC USE","GENITO URINARY SYSTEM AND SEX HORMONES",0.625,"mg","QD","ORAL",13,"WEEK 26",182,"TREATMENT","2014-07-02","2006","",182,null,null],[64,"CDISCPILOT01","CM","01-701-1015",64,"2","CALCIUM","CALCIUM","PROPHYLAXIS OR NON-THERAPEUTIC USE","ALIMENTARY TRACT AND METABOLISM",1,"TABLET","QD","ORAL",13,"WEEK 26",182,"TREATMENT","2014-07-02","2013","",182,null,null],[65,"CDISCPILOT01","CM","01-701-1015",65,"5","NEOSPORIN /USA/","UNCODED","","UNCODED",1,"TABLET","PRN","TOPICAL",13,"WEEK 26",182,"TREATMENT","2014-07-02","2014-01-03","",182,2,null],[66,"CDISCPILOT01","CM","01-701-1015",66,"6","HYDROCORTISONE","HYDROCORTISONE","","SYSTEMIC HORMONAL PREPARATIONS, EXCL.",1,"TABLET","PRN","TOPICAL",13,"WEEK 26",182,"TREATMENT","2014-07-02","2014-03-27","",182,85,null],[67,"CDISCPILOT01","CM","01-701-1023",1,"2","MYLANTA","UNCODED","","UNCODED",1,"TABLET","PRN","ORAL",1,"SCREENING 1",-7,"SCREENING","2012-07-22","2002","",-14,null,null],[68,"CDISCPILOT01","CM","01-701-1023",2,"3","TUMS","UNCODED","","UNCODED",1,"TABLET","PRN","ORAL",1,"SCREENING 1",-7,"SCREENING","2012-07-22","2002","",-14,null,null],[69,"CDISCPILOT01","CM","01-701-1023",3,"1","ASPIRIN","ACETYLSALICYLIC ACID","","NERVOUS SYSTEM",325,"mg","PRN","ORAL",1,"SCREENING 1",-7,"SCREENING","2012-07-22","2006","",-14,null,null],[70,"CDISCPILOT01","CM","01-701-1023",4,"2","MYLANTA","UNCODED","","UNCODED",1,"TABLET","PRN","ORAL",2,"SCREENING 2",-1,"SCREENING","2012-08-03","2002","",-2,null,null],[71,"CDISCPILOT01","CM","01-701-1023",5,"3","TUMS","UNCODED","","UNCODED",1,"TABLET","PRN","ORAL",2,"SCREENING 2",-1,"SCREENING","2012-08-03","2002","",-2,null,null],[72,"CDISCPILOT01","CM","01-701-1023",6,"1","ASPIRIN","ACETYLSALICYLIC ACID","","NERVOUS SYSTEM",325,"mg","PRN","ORAL",2,"SCREENING 2",-1,"SCREENING","2012-08-03","2006","",-2,null,null],[73,"CDISCPILOT01","CM","01-701-1023",7,"2","MYLANTA","UNCODED","","UNCODED",1,"TABLET","PRN","ORAL",3,"BASELINE",1,"TREATMENT","2012-08-05","2002","",1,null,null],[74,"CDISCPILOT01","CM","01-701-1023",8,"3","TUMS","UNCODED","","UNCODED",1,"TABLET","PRN","ORAL",3,"BASELINE",1,"TREATMENT","2012-08-05","2002","",1,null,null],[75,"CDISCPILOT01","CM","01-701-1023",9,"1","ASPIRIN","ACETYLSALICYLIC ACID","","NERVOUS SYSTEM",325,"mg","PRN","ORAL",3,"BASELINE",1,"TREATMENT","2012-08-05","2006","",1,null,null],[76,"CDISCPILOT01","CM","01-701-1023",10,"2","MYLANTA","UNCODED","","UNCODED",1,"TABLET","PRN","ORAL",4,"WEEK 2",14,"TREATMENT","2012-08-27","2002","",23,null,null],[77,"CDISCPILOT01","CM","01-701-1023",11,"3","TUMS","UNCODED","","UNCODED",1,"TABLET","PRN","ORAL",4,"WEEK 2",14,"TREATMENT","2012-08-27","2002","",23,null,null],[78,"CDISCPILOT01","CM","01-701-1023",12,"1","ASPIRIN","ACETYLSALICYLIC ACID","","NERVOUS SYSTEM",325,"mg","PRN","ORAL",4,"WEEK 2",14,"TREATMENT","2012-08-27","2006","",23,null,null],[79,"CDISCPILOT01","CM","01-701-1023",13,"2","MYLANTA","UNCODED","","UNCODED",1,"TABLET","PRN","ORAL",5,"WEEK 4",28,"TREATMENT","2012-09-02","2002","",29,null,null],[80,"CDISCPILOT01","CM","01-701-1023",14,"3","TUMS","UNCODED","","UNCODED",1,"TABLET","PRN","ORAL",5,"WEEK 4",28,"TREATMENT","2012-09-02","2002","",29,null,null],[81,"CDISCPILOT01","CM","01-701-1023",15,"1","ASPIRIN","ACETYLSALICYLIC ACID","","NERVOUS SYSTEM",325,"mg","PRN","ORAL",5,"WEEK 4",28,"TREATMENT","2012-09-02","2006","",29,null,null],[82,"CDISCPILOT01","CM","01-701-1023",16,"2","MYLANTA","UNCODED","","UNCODED",1,"TABLET","PRN","ORAL",101,"AE FOLLOW-UP",null,"SCREENING","2013-02-18","2002","",198,null,null],[83,"CDISCPILOT01","CM","01-701-1023",17,"3","TUMS","UNCODED","","UNCODED",1,"TABLET","PRN","ORAL",101,"AE FOLLOW-UP",null,"SCREENING","2013-02-18","2002","",198,null,null],[84,"CDISCPILOT01","CM","01-701-1023",18,"1","ASPIRIN","ACETYLSALICYLIC ACID","","NERVOUS SYSTEM",325,"mg","PRN","ORAL",101,"AE FOLLOW-UP",null,"SCREENING","2013-02-18","2006","",198,null,null],[85,"CDISCPILOT01","CM","01-701-1023",19,"2","MYLANTA","UNCODED","","UNCODED",1,"TABLET","PRN","ORAL",201,"RETRIEVAL",168,"TREATMENT","2013-02-18","2002","",198,null,null],[86,"CDISCPILOT01","CM","01-701-1023",20,"3","TUMS","UNCODED","","UNCODED",1,"TABLET","PRN","ORAL",201,"RETRIEVAL",168,"TREATMENT","2013-02-18","2002","",198,null,null],[87,"CDISCPILOT01","CM","01-701-1023",21,"1","ASPIRIN","ACETYLSALICYLIC ACID","","NERVOUS SYSTEM",325,"mg","PRN","ORAL",201,"RETRIEVAL",168,"TREATMENT","2013-02-18","2006","",198,null,null],[88,"CDISCPILOT01","CM","01-701-1028",1,"1","CENTRUM","UNCODED","PROPHYLAXIS OR NON-THERAPEUTIC USE","UNCODED",1,"TABLET","QD","ORAL",1,"SCREENING 1",-7,"SCREENING","2013-07-11","2013-04","",-8,null,null],[89,"CDISCPILOT01","CM","01-701-1028",2,"1","CENTRUM","UNCODED","PROPHYLAXIS OR NON-THERAPEUTIC USE","UNCODED",1,"TABLET","QD","ORAL",2,"SCREENING 2",-1,"SCREENING","2013-07-17","2013-04","",-2,null,null],[90,"CDISCPILOT01","CM","01-701-1028",3,"1","CENTRUM","UNCODED","PROPHYLAXIS OR NON-THERAPEUTIC USE","UNCODED",1,"TABLET","QD","ORAL",3,"BASELINE",1,"TREATMENT","2013-07-19","2013-04","",1,null,null],[91,"CDISCPILOT01","CM","01-701-1028",4,"1","CENTRUM","UNCODED","PROPHYLAXIS OR NON-THERAPEUTIC USE","UNCODED",1,"TABLET","QD","ORAL",4,"WEEK 2",14,"TREATMENT","2013-08-01","2013-04","",14,null,null],[92,"CDISCPILOT01","CM","01-701-1028",5,"1","CENTRUM","UNCODED","PROPHYLAXIS OR NON-THERAPEUTIC USE","UNCODED",1,"TABLET","QD","ORAL",5,"WEEK 4",28,"TREATMENT","2013-08-14","2013-04","",27,null,null],[93,"CDISCPILOT01","CM","01-701-1028",6,"2","HYDROCORTISONE","HYDROCORTISONE","","SYSTEMIC HORMONAL PREPARATIONS, EXCL.",1,"TABLET","PRN","TOPICAL",5,"WEEK 4",28,"TREATMENT","2013-08-14","2013-08-08","",27,21,null],[94,"CDISCPILOT01","CM","01-701-1028",7,"1","CENTRUM","UNCODED","PROPHYLAXIS OR NON-THERAPEUTIC USE","UNCODED",1,"TABLET","QD","ORAL",6,"AMBUL ECG REMOVAL",30,"TREATMENT","2013-08-16","2013-04","",29,null,null],[95,"CDISCPILOT01","CM","01-701-1028",8,"2","HYDROCORTISONE","HYDROCORTISONE","","SYSTEMIC HORMONAL PREPARATIONS, EXCL.",1,"TABLET","PRN","TOPICAL",6,"AMBUL ECG REMOVAL",30,"TREATMENT","2013-08-16","2013-08-08","",29,21,null],[96,"CDISCPILOT01","CM","01-701-1028",9,"1","CENTRUM","UNCODED","PROPHYLAXIS OR NON-THERAPEUTIC USE","UNCODED",1,"TABLET","QD","ORAL",7,"WEEK 6",42,"TREATMENT","2013-08-29","2013-04","",42,null,null],[97,"CDISCPILOT01","CM","01-701-1028",10,"2","HYDROCORTISONE","HYDROCORTISONE","","SYSTEMIC HORMONAL PREPARATIONS, EXCL.",1,"TABLET","PRN","TOPICAL",7,"WEEK 6",42,"TREATMENT","2013-08-29","2013-08-08","",42,21,null],[98,"CDISCPILOT01","CM","01-701-1028",11,"1","CENTRUM","UNCODED","PROPHYLAXIS OR NON-THERAPEUTIC USE","UNCODED",1,"TABLET","QD","ORAL",8,"WEEK 8",56,"TREATMENT","2013-09-10","2013-04","",54,null,null],[99,"CDISCPILOT01","CM","01-701-1028",12,"2","HYDROCORTISONE","HYDROCORTISONE","","SYSTEMIC HORMONAL PREPARATIONS, EXCL.",1,"TABLET","PRN","TOPICAL",8,"WEEK 8",56,"TREATMENT","2013-09-10","2013-08-08","",54,21,null],[100,"CDISCPILOT01","CM","01-701-1028",13,"1","CENTRUM","UNCODED","PROPHYLAXIS OR NON-THERAPEUTIC USE","UNCODED",1,"TABLET","QD","ORAL",9,"WEEK 12",84,"TREATMENT","2013-10-09","2013-04","",83,null,null],[101,"CDISCPILOT01","CM","01-701-1028",14,"2","HYDROCORTISONE","HYDROCORTISONE","","SYSTEMIC HORMONAL PREPARATIONS, EXCL.",1,"TABLET","PRN","TOPICAL",9,"WEEK 12",84,"TREATMENT","2013-10-09","2013-08-08","",83,21,null],[102,"CDISCPILOT01","CM","01-701-1028",15,"1","CENTRUM","UNCODED","PROPHYLAXIS OR NON-THERAPEUTIC USE","UNCODED",1,"TABLET","QD","ORAL",10,"WEEK 16",112,"TREATMENT","2013-11-06","2013-04","",111,null,null],[103,"CDISCPILOT01","CM","01-701-1028",16,"2","HYDROCORTISONE","HYDROCORTISONE","","SYSTEMIC HORMONAL PREPARATIONS, EXCL.",1,"TABLET","PRN","TOPICAL",10,"WEEK 16",112,"TREATMENT","2013-11-06","2013-08-08","",111,21,null],[104,"CDISCPILOT01","CM","01-701-1028",17,"1","CENTRUM","UNCODED","PROPHYLAXIS OR NON-THERAPEUTIC USE","UNCODED",1,"TABLET","QD","ORAL",11,"WEEK 20",140,"TREATMENT","2013-12-04","2013-04","",139,null,null],[105,"CDISCPILOT01","CM","01-701-1028",18,"2","HYDROCORTISONE","HYDROCORTISONE","","SYSTEMIC HORMONAL PREPARATIONS, EXCL.",1,"TABLET","PRN","TOPICAL",11,"WEEK 20",140,"TREATMENT","2013-12-04","2013-08-08","",139,21,null],[106,"CDISCPILOT01","CM","01-701-1028",19,"1","CENTRUM","UNCODED","PROPHYLAXIS OR NON-THERAPEUTIC USE","UNCODED",1,"TABLET","QD","ORAL",12,"WEEK 24",168,"TREATMENT","2014-01-06","2013-04","",172,null,null],[107,"CDISCPILOT01","CM","01-701-1028",20,"2","HYDROCORTISONE","HYDROCORTISONE","","SYSTEMIC HORMONAL PREPARATIONS, EXCL.",1,"TABLET","PRN","TOPICAL",12,"WEEK 24",168,"TREATMENT","2014-01-06","2013-08-08","",172,21,null],[108,"CDISCPILOT01","CM","01-701-1028",21,"1","CENTRUM","UNCODED","PROPHYLAXIS OR NON-THERAPEUTIC USE","UNCODED",1,"TABLET","QD","ORAL",13,"WEEK 26",182,"TREATMENT","2014-01-14","2013-04","",180,null,null],[109,"CDISCPILOT01","CM","01-701-1028",22,"2","HYDROCORTISONE","HYDROCORTISONE","","SYSTEMIC HORMONAL PREPARATIONS, EXCL.",1,"TABLET","PRN","TOPICAL",13,"WEEK 26",182,"TREATMENT","2014-01-14","2013-08-08","",180,21,null],[110,"CDISCPILOT01","CM","01-701-1033",1,"1","CALCIUM","CALCIUM","PROPHYLAXIS OR NON-THERAPEUTIC USE","ALIMENTARY TRACT AND METABOLISM",1,"TABLET","PRN","ORAL",1,"SCREENING 1",-7,"SCREENING","2014-03-10","2011","",-8,null,null],[111,"CDISCPILOT01","CM","01-701-1033",2,"2","COD-LIVER OIL","UNCODED","PROPHYLAXIS OR NON-THERAPEUTIC USE","UNCODED",1,"TABLET","PRN","ORAL",1,"SCREENING 1",-7,"SCREENING","2014-03-10","2011","",-8,null,null],[112,"CDISCPILOT01","CM","01-701-1033",3,"4","ZINC","UNCODED","PROPHYLAXIS OR NON-THERAPEUTIC USE","UNCODED",1,"TABLET","PRN","ORAL",1,"SCREENING 1",-7,"SCREENING","2014-03-10","2011","",-8,null,null],[113,"CDISCPILOT01","CM","01-701-1033",4,"3","NITROGLYCERIN","UNCODED","","UNCODED",0.4,"mg","PRN","SUBLINGUAL",1,"SCREENING 1",-7,"SCREENING","2014-03-10","2014-02","",-8,null,null],[114,"CDISCPILOT01","CM","01-701-1033",5,"1","CALCIUM","CALCIUM","PROPHYLAXIS OR NON-THERAPEUTIC USE","ALIMENTARY TRACT AND METABOLISM",1,"TABLET","PRN","ORAL",2,"SCREENING 2",-1,"SCREENING","2014-03-16","2011","",-2,null,null],[115,"CDISCPILOT01","CM","01-701-1033",6,"2","COD-LIVER OIL","UNCODED","PROPHYLAXIS OR NON-THERAPEUTIC USE","UNCODED",1,"TABLET","PRN","ORAL",2,"SCREENING 2",-1,"SCREENING","2014-03-16","2011","",-2,null,null],[116,"CDISCPILOT01","CM","01-701-1033",7,"4","ZINC","UNCODED","PROPHYLAXIS OR NON-THERAPEUTIC USE","UNCODED",1,"TABLET","PRN","ORAL",2,"SCREENING 2",-1,"SCREENING","2014-03-16","2011","",-2,null,null],[117,"CDISCPILOT01","CM","01-701-1033",8,"3","NITROGLYCERIN","UNCODED","","UNCODED",0.4,"mg","PRN","SUBLINGUAL",2,"SCREENING 2",-1,"SCREENING","2014-03-16","2014-02","",-2,null,null],[118,"CDISCPILOT01","CM","01-701-1033",9,"1","CALCIUM","CALCIUM","PROPHYLAXIS OR NON-THERAPEUTIC USE","ALIMENTARY TRACT AND METABOLISM",1,"TABLET","PRN","ORAL",3,"BASELINE",1,"TREATMENT","2014-03-18","2011","",1,null,null],[119,"CDISCPILOT01","CM","01-701-1033",10,"2","COD-LIVER OIL","UNCODED","PROPHYLAXIS OR NON-THERAPEUTIC USE","UNCODED",1,"TABLET","PRN","ORAL",3,"BASELINE",1,"TREATMENT","2014-03-18","2011","",1,null,null],[120,"CDISCPILOT01","CM","01-701-1033",11,"4","ZINC","UNCODED","PROPHYLAXIS OR NON-THERAPEUTIC USE","UNCODED",1,"TABLET","PRN","ORAL",3,"BASELINE",1,"TREATMENT","2014-03-18","2011","",1,null,null],[121,"CDISCPILOT01","CM","01-701-1033",12,"3","NITROGLYCERIN","UNCODED","","UNCODED",0.4,"mg","PRN","SUBLINGUAL",3,"BASELINE",1,"TREATMENT","2014-03-18","2014-02","",1,null,null],[122,"CDISCPILOT01","CM","01-701-1033",13,"1","CALCIUM","CALCIUM","PROPHYLAXIS OR NON-THERAPEUTIC USE","ALIMENTARY TRACT AND METABOLISM",1,"TABLET","PRN","ORAL",4,"WEEK 2",14,"TREATMENT","2014-04-01","2011","",15,null,null],[123,"CDISCPILOT01","CM","01-701-1033",14,"2","COD-LIVER OIL","UNCODED","PROPHYLAXIS OR NON-THERAPEUTIC USE","UNCODED",1,"TABLET","PRN","ORAL",4,"WEEK 2",14,"TREATMENT","2014-04-01","2011","",15,null,null],[124,"CDISCPILOT01","CM","01-701-1033",15,"4","ZINC","UNCODED","PROPHYLAXIS OR NON-THERAPEUTIC USE","UNCODED",1,"TABLET","PRN","ORAL",4,"WEEK 2",14,"TREATMENT","2014-04-01","2011","",15,null,null],[125,"CDISCPILOT01","CM","01-701-1033",16,"3","NITROGLYCERIN","UNCODED","","UNCODED",0.4,"mg","PRN","SUBLINGUAL",4,"WEEK 2",14,"TREATMENT","2014-04-01","2014-02","",15,null,null],[126,"CDISCPILOT01","CM","01-701-1033",17,"1","CALCIUM","CALCIUM","PROPHYLAXIS OR NON-THERAPEUTIC USE","ALIMENTARY TRACT AND METABOLISM",1,"TABLET","PRN","ORAL",5,"WEEK 4",28,"TREATMENT","2014-04-14","2011","",28,null,null],[127,"CDISCPILOT01","CM","01-701-1033",18,"2","COD-LIVER OIL","UNCODED","PROPHYLAXIS OR NON-THERAPEUTIC USE","UNCODED",1,"TABLET","PRN","ORAL",5,"WEEK 4",28,"TREATMENT","2014-04-14","2011","",28,null,null],[128,"CDISCPILOT01","CM","01-701-1033",19,"4","ZINC","UNCODED","PROPHYLAXIS OR NON-THERAPEUTIC USE","UNCODED",1,"TABLET","PRN","ORAL",5,"WEEK 4",28,"TREATMENT","2014-04-14","2011","",28,null,null],[129,"CDISCPILOT01","CM","01-701-1033",20,"3","NITROGLYCERIN","UNCODED","","UNCODED",0.4,"mg","PRN","SUBLINGUAL",5,"WEEK 4",28,"TREATMENT","2014-04-14","2014-02","",28,null,null],[130,"CDISCPILOT01","CM","01-701-1033",21,"1","CALCIUM","CALCIUM","PROPHYLAXIS OR NON-THERAPEUTIC USE","ALIMENTARY TRACT AND METABOLISM",1,"TABLET","PRN","ORAL",201,"RETRIEVAL",168,"TREATMENT","2014-09-15","2011","",182,null,null],[131,"CDISCPILOT01","CM","01-701-1033",22,"2","COD-LIVER OIL","UNCODED","PROPHYLAXIS OR NON-THERAPEUTIC USE","UNCODED",1,"TABLET","PRN","ORAL",201,"RETRIEVAL",168,"TREATMENT","2014-09-15","2011","",182,null,null],[132,"CDISCPILOT01","CM","01-701-1033",23,"4","ZINC","UNCODED","PROPHYLAXIS OR NON-THERAPEUTIC USE","UNCODED",1,"TABLET","PRN","ORAL",201,"RETRIEVAL",168,"TREATMENT","2014-09-15","2011","",182,null,null],[133,"CDISCPILOT01","CM","01-701-1033",24,"3","NITROGLYCERIN","UNCODED","","UNCODED",0.4,"mg","PRN","SUBLINGUAL",201,"RETRIEVAL",168,"TREATMENT","2014-09-15","2014-02","",182,null,null],[134,"CDISCPILOT01","CM","01-701-1034",1,"2","ESTROGEN NOS","UNCODED","PROPHYLAXIS OR NON-THERAPEUTIC USE","UNCODED",3,"mg","QD","INTRAMUSCULAR",1,"SCREENING 1",-7,"SCREENING","2014-06-24","1960","",-7,null,null],[135,"CDISCPILOT01","CM","01-701-1034",2,"5","LEVOTHROID","UNCODED","","UNCODED",0.15,"mg","QD","ORAL",1,"SCREENING 1",-7,"SCREENING","2014-06-24","1977","",-7,null,null],[136,"CDISCPILOT01","CM","01-701-1034",3,"6","VITAMIN C","UNCODED","PROPHYLAXIS OR NON-THERAPEUTIC USE","UNCODED",1,"TABLET","QD","ORAL",1,"SCREENING 1",-7,"SCREENING","2014-06-24","1986","",-7,null,null],[137,"CDISCPILOT01","CM","01-701-1034",4,"7","VITAMIN E","UNCODED","PROPHYLAXIS OR NON-THERAPEUTIC USE","UNCODED",1,"TABLET","QD","ORAL",1,"SCREENING 1",-7,"SCREENING","2014-06-24","1986","",-7,null,null],[138,"CDISCPILOT01","CM","01-701-1034",5,"3","EX-LAX","UNCODED","","UNCODED",1,"TABLET","QD","ORAL",1,"SCREENING 1",-7,"SCREENING","2014-06-24","2001","",-7,null,null],[139,"CDISCPILOT01","CM","01-701-1034",6,"1","CALCIUM","CALCIUM","PROPHYLAXIS OR NON-THERAPEUTIC USE","ALIMENTARY TRACT AND METABOLISM",1,"TABLET","QD","ORAL",1,"SCREENING 1",-7,"SCREENING","2014-06-24","2012","",-7,null,null],[140,"CDISCPILOT01","CM","01-701-1034",7,"4","IRON","UNCODED","PROPHYLAXIS OR NON-THERAPEUTIC USE","UNCODED",1,"TABLET","QD","ORAL",1,"SCREENING 1",-7,"SCREENING","2014-06-24","2012","",-7,null,null],[141,"CDISCPILOT01","CM","01-701-1034",8,"2","ESTROGEN NOS","UNCODED","PROPHYLAXIS OR NON-THERAPEUTIC USE","UNCODED",3,"mg","QD","INTRAMUSCULAR",2,"SCREENING 2",-1,"SCREENING","2014-06-29","1960","",-2,null,null],[142,"CDISCPILOT01","CM","01-701-1034",9,"5","LEVOTHROID","UNCODED","","UNCODED",0.15,"mg","QD","ORAL",2,"SCREENING 2",-1,"SCREENING","2014-06-29","1977","",-2,null,null],[143,"CDISCPILOT01","CM","01-701-1034",10,"6","VITAMIN C","UNCODED","PROPHYLAXIS OR NON-THERAPEUTIC USE","UNCODED",1,"TABLET","QD","ORAL",2,"SCREENING 2",-1,"SCREENING","2014-06-29","1986","",-2,null,null],[144,"CDISCPILOT01","CM","01-701-1034",11,"7","VITAMIN E","UNCODED","PROPHYLAXIS OR NON-THERAPEUTIC USE","UNCODED",1,"TABLET","QD","ORAL",2,"SCREENING 2",-1,"SCREENING","2014-06-29","1986","",-2,null,null],[145,"CDISCPILOT01","CM","01-701-1034",12,"3","EX-LAX","UNCODED","","UNCODED",1,"TABLET","QD","ORAL",2,"SCREENING 2",-1,"SCREENING","2014-06-29","2001","",-2,null,null],[146,"CDISCPILOT01","CM","01-701-1034",13,"1","CALCIUM","CALCIUM","PROPHYLAXIS OR NON-THERAPEUTIC USE","ALIMENTARY TRACT AND METABOLISM",1,"TABLET","QD","ORAL",2,"SCREENING 2",-1,"SCREENING","2014-06-29","2012","",-2,null,null],[147,"CDISCPILOT01","CM","01-701-1034",14,"4","IRON","UNCODED","PROPHYLAXIS OR NON-THERAPEUTIC USE","UNCODED",1,"TABLET","QD","ORAL",2,"SCREENING 2",-1,"SCREENING","2014-06-29","2012","",-2,null,null],[148,"CDISCPILOT01","CM","01-701-1034",15,"2","ESTROGEN NOS","UNCODED","PROPHYLAXIS OR NON-THERAPEUTIC USE","UNCODED",3,"mg","QD","INTRAMUSCULAR",3,"BASELINE",1,"TREATMENT","2014-07-01","1960","",1,null,null],[149,"CDISCPILOT01","CM","01-701-1034",16,"5","LEVOTHROID","UNCODED","","UNCODED",0.15,"mg","QD","ORAL",3,"BASELINE",1,"TREATMENT","2014-07-01","1977","",1,null,null],[150,"CDISCPILOT01","CM","01-701-1034",17,"6","VITAMIN C","UNCODED","PROPHYLAXIS OR NON-THERAPEUTIC USE","UNCODED",1,"TABLET","QD","ORAL",3,"BASELINE",1,"TREATMENT","2014-07-01","1986","",1,null,null],[151,"CDISCPILOT01","CM","01-701-1034",18,"7","VITAMIN E","UNCODED","PROPHYLAXIS OR NON-THERAPEUTIC USE","UNCODED",1,"TABLET","QD","ORAL",3,"BASELINE",1,"TREATMENT","2014-07-01","1986","",1,null,null],[152,"CDISCPILOT01","CM","01-701-1034",19,"3","EX-LAX","UNCODED","","UNCODED",1,"TABLET","QD","ORAL",3,"BASELINE",1,"TREATMENT","2014-07-01","2001","",1,null,null],[153,"CDISCPILOT01","CM","01-701-1034",20,"1","CALCIUM","CALCIUM","PROPHYLAXIS OR NON-THERAPEUTIC USE","ALIMENTARY TRACT AND METABOLISM",1,"TABLET","QD","ORAL",3,"BASELINE",1,"TREATMENT","2014-07-01","2012","",1,null,null],[154,"CDISCPILOT01","CM","01-701-1034",21,"4","IRON","UNCODED","PROPHYLAXIS OR NON-THERAPEUTIC USE","UNCODED",1,"TABLET","QD","ORAL",3,"BASELINE",1,"TREATMENT","2014-07-01","2012","",1,null,null],[155,"CDISCPILOT01","CM","01-701-1034",22,"2","ESTROGEN NOS","UNCODED","PROPHYLAXIS OR NON-THERAPEUTIC USE","UNCODED",3,"mg","QD","INTRAMUSCULAR",4,"WEEK 2",14,"TREATMENT","2014-07-15","1960","",15,null,null],[156,"CDISCPILOT01","CM","01-701-1034",23,"5","LEVOTHROID","UNCODED","","UNCODED",0.15,"mg","QD","ORAL",4,"WEEK 2",14,"TREATMENT","2014-07-15","1977","",15,null,null],[157,"CDISCPILOT01","CM","01-701-1034",24,"6","VITAMIN C","UNCODED","PROPHYLAXIS OR NON-THERAPEUTIC USE","UNCODED",1,"TABLET","QD","ORAL",4,"WEEK 2",14,"TREATMENT","2014-07-15","1986","",15,null,null],[158,"CDISCPILOT01","CM","01-701-1034",25,"7","VITAMIN E","UNCODED","PROPHYLAXIS OR NON-THERAPEUTIC USE","UNCODED",1,"TABLET","QD","ORAL",4,"WEEK 2",14,"TREATMENT","2014-07-15","1986","",15,null,null],[159,"CDISCPILOT01","CM","01-701-1034",26,"3","EX-LAX","UNCODED","","UNCODED",1,"TABLET","QD","ORAL",4,"WEEK 2",14,"TREATMENT","2014-07-15","2001","",15,null,null],[160,"CDISCPILOT01","CM","01-701-1034",27,"1","CALCIUM","CALCIUM","PROPHYLAXIS OR NON-THERAPEUTIC USE","ALIMENTARY TRACT AND METABOLISM",1,"TABLET","QD","ORAL",4,"WEEK 2",14,"TREATMENT","2014-07-15","2012","",15,null,null],[161,"CDISCPILOT01","CM","01-701-1034",28,"4","IRON","UNCODED","PROPHYLAXIS OR NON-THERAPEUTIC USE","UNCODED",1,"TABLET","QD","ORAL",4,"WEEK 2",14,"TREATMENT","2014-07-15","2012","",15,null,null],[162,"CDISCPILOT01","CM","01-701-1034",29,"2","ESTROGEN NOS","UNCODED","PROPHYLAXIS OR NON-THERAPEUTIC USE","UNCODED",3,"mg","QD","INTRAMUSCULAR",5,"WEEK 4",28,"TREATMENT","2014-07-29","1960","",29,null,null],[163,"CDISCPILOT01","CM","01-701-1034",30,"5","LEVOTHROID","UNCODED","","UNCODED",0.15,"mg","QD","ORAL",5,"WEEK 4",28,"TREATMENT","2014-07-29","1977","",29,null,null],[164,"CDISCPILOT01","CM","01-701-1034",31,"6","VITAMIN C","UNCODED","PROPHYLAXIS OR NON-THERAPEUTIC USE","UNCODED",1,"TABLET","QD","ORAL",5,"WEEK 4",28,"TREATMENT","2014-07-29","1986","",29,null,null],[165,"CDISCPILOT01","CM","01-701-1034",32,"7","VITAMIN E","UNCODED","PROPHYLAXIS OR NON-THERAPEUTIC USE","UNCODED",1,"TABLET","QD","ORAL",5,"WEEK 4",28,"TREATMENT","2014-07-29","1986","",29,null,null],[166,"CDISCPILOT01","CM","01-701-1034",33,"3","EX-LAX","UNCODED","","UNCODED",1,"TABLET","QD","ORAL",5,"WEEK 4",28,"TREATMENT","2014-07-29","2001","",29,null,null],[167,"CDISCPILOT01","CM","01-701-1034",34,"1","CALCIUM","CALCIUM","PROPHYLAXIS OR NON-THERAPEUTIC USE","ALIMENTARY TRACT AND METABOLISM",1,"TABLET","QD","ORAL",5,"WEEK 4",28,"TREATMENT","2014-07-29","2012","",29,null,null],[168,"CDISCPILOT01","CM","01-701-1034",35,"4","IRON","UNCODED","PROPHYLAXIS OR NON-THERAPEUTIC USE","UNCODED",1,"TABLET","QD","ORAL",5,"WEEK 4",28,"TREATMENT","2014-07-29","2012","",29,null,null],[169,"CDISCPILOT01","CM","01-701-1034",36,"2","ESTROGEN NOS","UNCODED","PROPHYLAXIS OR NON-THERAPEUTIC USE","UNCODED",3,"mg","QD","INTRAMUSCULAR",6,"AMBUL ECG REMOVAL",30,"TREATMENT","2014-07-31","1960","",31,null,null],[170,"CDISCPILOT01","CM","01-701-1034",37,"5","LEVOTHROID","UNCODED","","UNCODED",0.15,"mg","QD","ORAL",6,"AMBUL ECG REMOVAL",30,"TREATMENT","2014-07-31","1977","",31,null,null],[171,"CDISCPILOT01","CM","01-701-1034",38,"6","VITAMIN C","UNCODED","PROPHYLAXIS OR NON-THERAPEUTIC USE","UNCODED",1,"TABLET","QD","ORAL",6,"AMBUL ECG REMOVAL",30,"TREATMENT","2014-07-31","1986","",31,null,null],[172,"CDISCPILOT01","CM","01-701-1034",39,"7","VITAMIN E","UNCODED","PROPHYLAXIS OR NON-THERAPEUTIC USE","UNCODED",1,"TABLET","QD","ORAL",6,"AMBUL ECG REMOVAL",30,"TREATMENT","2014-07-31","1986","",31,null,null],[173,"CDISCPILOT01","CM","01-701-1034",40,"3","EX-LAX","UNCODED","","UNCODED",1,"TABLET","QD","ORAL",6,"AMBUL ECG REMOVAL",30,"TREATMENT","2014-07-31","2001","",31,null,null],[174,"CDISCPILOT01","CM","01-701-1034",41,"1","CALCIUM","CALCIUM","PROPHYLAXIS OR NON-THERAPEUTIC USE","ALIMENTARY TRACT AND METABOLISM",1,"TABLET","QD","ORAL",6,"AMBUL ECG REMOVAL",30,"TREATMENT","2014-07-31","2012","",31,null,null],[175,"CDISCPILOT01","CM","01-701-1034",42,"4","IRON","UNCODED","PROPHYLAXIS OR NON-THERAPEUTIC USE","UNCODED",1,"TABLET","QD","ORAL",6,"AMBUL ECG REMOVAL",30,"TREATMENT","2014-07-31","2012","",31,null,null],[176,"CDISCPILOT01","CM","01-701-1034",43,"2","ESTROGEN NOS","UNCODED","PROPHYLAXIS OR NON-THERAPEUTIC USE","UNCODED",3,"mg","QD","INTRAMUSCULAR",7,"WEEK 6",42,"TREATMENT","2014-08-11","1960","",42,null,null],[177,"CDISCPILOT01","CM","01-701-1034",44,"5","LEVOTHROID","UNCODED","","UNCODED",0.15,"mg","QD","ORAL",7,"WEEK 6",42,"TREATMENT","2014-08-11","1977","",42,null,null],[178,"CDISCPILOT01","CM","01-701-1034",45,"6","VITAMIN C","UNCODED","PROPHYLAXIS OR NON-THERAPEUTIC USE","UNCODED",1,"TABLET","QD","ORAL",7,"WEEK 6",42,"TREATMENT","2014-08-11","1986","",42,null,null],[179,"CDISCPILOT01","CM","01-701-1034",46,"7","VITAMIN E","UNCODED","PROPHYLAXIS OR NON-THERAPEUTIC USE","UNCODED",1,"TABLET","QD","ORAL",7,"WEEK 6",42,"TREATMENT","2014-08-11","1986","",42,null,null],[180,"CDISCPILOT01","CM","01-701-1034",47,"3","EX-LAX","UNCODED","","UNCODED",1,"TABLET","QD","ORAL",7,"WEEK 6",42,"TREATMENT","2014-08-11","2001","",42,null,null],[181,"CDISCPILOT01","CM","01-701-1034",48,"1","CALCIUM","CALCIUM","PROPHYLAXIS OR NON-THERAPEUTIC USE","ALIMENTARY TRACT AND METABOLISM",1,"TABLET","QD","ORAL",7,"WEEK 6",42,"TREATMENT","2014-08-11","2012","",42,null,null],[182,"CDISCPILOT01","CM","01-701-1034",49,"4","IRON","UNCODED","PROPHYLAXIS OR NON-THERAPEUTIC USE","UNCODED",1,"TABLET","QD","ORAL",7,"WEEK 6",42,"TREATMENT","2014-08-11","2012","",42,null,null],[183,"CDISCPILOT01","CM","01-701-1034",50,"2","ESTROGEN NOS","UNCODED","PROPHYLAXIS OR NON-THERAPEUTIC USE","UNCODED",3,"mg","QD","INTRAMUSCULAR",8,"WEEK 8",56,"TREATMENT","2014-08-26","1960","",57,null,null],[184,"CDISCPILOT01","CM","01-701-1034",51,"5","LEVOTHROID","UNCODED","","UNCODED",0.15,"mg","QD","ORAL",8,"WEEK 8",56,"TREATMENT","2014-08-26","1977","",57,null,null],[185,"CDISCPILOT01","CM","01-701-1034",52,"6","VITAMIN C","UNCODED","PROPHYLAXIS OR NON-THERAPEUTIC USE","UNCODED",1,"TABLET","QD","ORAL",8,"WEEK 8",56,"TREATMENT","2014-08-26","1986","",57,null,null],[186,"CDISCPILOT01","CM","01-701-1034",53,"7","VITAMIN E","UNCODED","PROPHYLAXIS OR NON-THERAPEUTIC USE","UNCODED",1,"TABLET","QD","ORAL",8,"WEEK 8",56,"TREATMENT","2014-08-26","1986","",57,null,null],[187,"CDISCPILOT01","CM","01-701-1034",54,"3","EX-LAX","UNCODED","","UNCODED",1,"TABLET","QD","ORAL",8,"WEEK 8",56,"TREATMENT","2014-08-26","2001","",57,null,null],[188,"CDISCPILOT01","CM","01-701-1034",55,"1","CALCIUM","CALCIUM","PROPHYLAXIS OR NON-THERAPEUTIC USE","ALIMENTARY TRACT AND METABOLISM",1,"TABLET","QD","ORAL",8,"WEEK 8",56,"TREATMENT","2014-08-26","2012","",57,null,null],[189,"CDISCPILOT01","CM","01-701-1034",56,"4","IRON","UNCODED","PROPHYLAXIS OR NON-THERAPEUTIC USE","UNCODED",1,"TABLET","QD","ORAL",8,"WEEK 8",56,"TREATMENT","2014-08-26","2012","",57,null,null],[190,"CDISCPILOT01","CM","01-701-1034",57,"2","ESTROGEN NOS","UNCODED","PROPHYLAXIS OR NON-THERAPEUTIC USE","UNCODED",3,"mg","QD","INTRAMUSCULAR",9,"WEEK 12",84,"TREATMENT","2014-09-25","1960","",87,null,null],[191,"CDISCPILOT01","CM","01-701-1034",58,"5","LEVOTHROID","UNCODED","","UNCODED",0.15,"mg","QD","ORAL",9,"WEEK 12",84,"TREATMENT","2014-09-25","1977","",87,null,null],[192,"CDISCPILOT01","CM","01-701-1034",59,"6","VITAMIN C","UNCODED","PROPHYLAXIS OR NON-THERAPEUTIC USE","UNCODED",1,"TABLET","QD","ORAL",9,"WEEK 12",84,"TREATMENT","2014-09-25","1986","",87,null,null],[193,"CDISCPILOT01","CM","01-701-1034",60,"7","VITAMIN E","UNCODED","PROPHYLAXIS OR NON-THERAPEUTIC USE","UNCODED",1,"TABLET","QD","ORAL",9,"WEEK 12",84,"TREATMENT","2014-09-25","1986","",87,null,null],[194,"CDISCPILOT01","CM","01-701-1034",61,"3","EX-LAX","UNCODED","","UNCODED",1,"TABLET","QD","ORAL",9,"WEEK 12",84,"TREATMENT","2014-09-25","2001","",87,null,null],[195,"CDISCPILOT01","CM","01-701-1034",62,"1","CALCIUM","CALCIUM","PROPHYLAXIS OR NON-THERAPEUTIC USE","ALIMENTARY TRACT AND METABOLISM",1,"TABLET","QD","ORAL",9,"WEEK 12",84,"TREATMENT","2014-09-25","2012","",87,null,null],[196,"CDISCPILOT01","CM","01-701-1034",63,"4","IRON","UNCODED","PROPHYLAXIS OR NON-THERAPEUTIC USE","UNCODED",1,"TABLET","QD","ORAL",9,"WEEK 12",84,"TREATMENT","2014-09-25","2012","",87,null,null],[197,"CDISCPILOT01","CM","01-701-1034",64,"8","HYDROCORTISONE","HYDROCORTISONE","","SYSTEMIC HORMONAL PREPARATIONS, EXCL.",1,"TABLET","BID","TOPICAL",9,"WEEK 12",84,"TREATMENT","2014-09-25","2014-08-27","",87,58,null],[198,"CDISCPILOT01","CM","01-701-1034",65,"2","ESTROGEN NOS","UNCODED","PROPHYLAXIS OR NON-THERAPEUTIC USE","UNCODED",3,"mg","QD","INTRAMUSCULAR",10,"WEEK 16",112,"TREATMENT","2014-10-21","1960","",113,null,null],[199,"CDISCPILOT01","CM","01-701-1034",66,"5","LEVOTHROID","UNCODED","","UNCODED",0.15,"mg","QD","ORAL",10,"WEEK 16",112,"TREATMENT","2014-10-21","1977","",113,null,null],[200,"CDISCPILOT01","CM","01-701-1034",67,"6","VITAMIN C","UNCODED","PROPHYLAXIS OR NON-THERAPEUTIC USE","UNCODED",1,"TABLET","QD","ORAL",10,"WEEK 16",112,"TREATMENT","2014-10-21","1986","",113,null,null],[201,"CDISCPILOT01","CM","01-701-1034",68,"7","VITAMIN E","UNCODED","PROPHYLAXIS OR NON-THERAPEUTIC USE","UNCODED",1,"TABLET","QD","ORAL",10,"WEEK 16",112,"TREATMENT","2014-10-21","1986","",113,null,null],[202,"CDISCPILOT01","CM","01-701-1034",69,"3","EX-LAX","UNCODED","","UNCODED",1,"TABLET","QD","ORAL",10,"WEEK 16",112,"TREATMENT","2014-10-21","2001","",113,null,null],[203,"CDISCPILOT01","CM","01-701-1034",70,"1","CALCIUM","CALCIUM","PROPHYLAXIS OR NON-THERAPEUTIC USE","ALIMENTARY TRACT AND METABOLISM",1,"TABLET","QD","ORAL",10,"WEEK 16",112,"TREATMENT","2014-10-21","2012","",113,null,null],[204,"CDISCPILOT01","CM","01-701-1034",71,"4","IRON","UNCODED","PROPHYLAXIS OR NON-THERAPEUTIC USE","UNCODED",1,"TABLET","QD","ORAL",10,"WEEK 16",112,"TREATMENT","2014-10-21","2012","",113,null,null],[205,"CDISCPILOT01","CM","01-701-1034",72,"8","HYDROCORTISONE","HYDROCORTISONE","","SYSTEMIC HORMONAL PREPARATIONS, EXCL.",1,"TABLET","BID","TOPICAL",10,"WEEK 16",112,"TREATMENT","2014-10-21","2014-08-27","",113,58,null],[206,"CDISCPILOT01","CM","01-701-1034",73,"2","ESTROGEN NOS","UNCODED","PROPHYLAXIS OR NON-THERAPEUTIC USE","UNCODED",3,"mg","QD","INTRAMUSCULAR",11,"WEEK 20",140,"TREATMENT","2014-11-18","1960","",141,null,null],[207,"CDISCPILOT01","CM","01-701-1034",74,"5","LEVOTHROID","UNCODED","","UNCODED",0.15,"mg","QD","ORAL",11,"WEEK 20",140,"TREATMENT","2014-11-18","1977","",141,null,null],[208,"CDISCPILOT01","CM","01-701-1034",75,"6","VITAMIN C","UNCODED","PROPHYLAXIS OR NON-THERAPEUTIC USE","UNCODED",1,"TABLET","QD","ORAL",11,"WEEK 20",140,"TREATMENT","2014-11-18","1986","",141,null,null],[209,"CDISCPILOT01","CM","01-701-1034",76,"7","VITAMIN E","UNCODED","PROPHYLAXIS OR NON-THERAPEUTIC USE","UNCODED",1,"TABLET","QD","ORAL",11,"WEEK 20",140,"TREATMENT","2014-11-18","1986","",141,null,null],[210,"CDISCPILOT01","CM","01-701-1034",77,"3","EX-LAX","UNCODED","","UNCODED",1,"TABLET","QD","ORAL",11,"WEEK 20",140,"TREATMENT","2014-11-18","2001","",141,null,null],[211,"CDISCPILOT01","CM","01-701-1034",78,"1","CALCIUM","CALCIUM","PROPHYLAXIS OR NON-THERAPEUTIC USE","ALIMENTARY TRACT AND METABOLISM",1,"TABLET","QD","ORAL",11,"WEEK 20",140,"TREATMENT","2014-11-18","2012","",141,null,null],[212,"CDISCPILOT01","CM","01-701-1034",79,"4","IRON","UNCODED","PROPHYLAXIS OR NON-THERAPEUTIC USE","UNCODED",1,"TABLET","QD","ORAL",11,"WEEK 20",140,"TREATMENT","2014-11-18","2012","",141,null,null],[213,"CDISCPILOT01","CM","01-701-1034",80,"8","HYDROCORTISONE","HYDROCORTISONE","","SYSTEMIC HORMONAL PREPARATIONS, EXCL.",1,"TABLET","BID","TOPICAL",11,"WEEK 20",140,"TREATMENT","2014-11-18","2014-08-27","",141,58,null],[214,"CDISCPILOT01","CM","01-701-1034",81,"2","ESTROGEN NOS","UNCODED","PROPHYLAXIS OR NON-THERAPEUTIC USE","UNCODED",3,"mg","QD","INTRAMUSCULAR",12,"WEEK 24",168,"TREATMENT","2014-12-17","1960","",170,null,null],[215,"CDISCPILOT01","CM","01-701-1034",82,"5","LEVOTHROID","UNCODED","","UNCODED",0.15,"mg","QD","ORAL",12,"WEEK 24",168,"TREATMENT","2014-12-17","1977","",170,null,null],[216,"CDISCPILOT01","CM","01-701-1034",83,"6","VITAMIN C","UNCODED","PROPHYLAXIS OR NON-THERAPEUTIC USE","UNCODED",1,"TABLET","QD","ORAL",12,"WEEK 24",168,"TREATMENT","2014-12-17","1986","",170,null,null],[217,"CDISCPILOT01","CM","01-701-1034",84,"7","VITAMIN E","UNCODED","PROPHYLAXIS OR NON-THERAPEUTIC USE","UNCODED",1,"TABLET","QD","ORAL",12,"WEEK 24",168,"TREATMENT","2014-12-17","1986","",170,null,null],[218,"CDISCPILOT01","CM","01-701-1034",85,"3","EX-LAX","UNCODED","","UNCODED",1,"TABLET","QD","ORAL",12,"WEEK 24",168,"TREATMENT","2014-12-17","2001","",170,null,null],[219,"CDISCPILOT01","CM","01-701-1034",86,"1","CALCIUM","CALCIUM","PROPHYLAXIS OR NON-THERAPEUTIC USE","ALIMENTARY TRACT AND METABOLISM",1,"TABLET","QD","ORAL",12,"WEEK 24",168,"TREATMENT","2014-12-17","2012","",170,null,null],[220,"CDISCPILOT01","CM","01-701-1034",87,"4","IRON","UNCODED","PROPHYLAXIS OR NON-THERAPEUTIC USE","UNCODED",1,"TABLET","QD","ORAL",12,"WEEK 24",168,"TREATMENT","2014-12-17","2012","",170,null,null],[221,"CDISCPILOT01","CM","01-701-1034",88,"8","HYDROCORTISONE","HYDROCORTISONE","","SYSTEMIC HORMONAL PREPARATIONS, EXCL.",1,"TABLET","BID","TOPICAL",12,"WEEK 24",168,"TREATMENT","2014-12-17","2014-08-27","",170,58,null],[222,"CDISCPILOT01","CM","01-701-1034",89,"2","ESTROGEN NOS","UNCODED","PROPHYLAXIS OR NON-THERAPEUTIC USE","UNCODED",3,"mg","QD","INTRAMUSCULAR",13,"WEEK 26",182,"TREATMENT","2014-12-30","1960","",183,null,null],[223,"CDISCPILOT01","CM","01-701-1034",90,"5","LEVOTHROID","UNCODED","","UNCODED",0.15,"mg","QD","ORAL",13,"WEEK 26",182,"TREATMENT","2014-12-30","1977","",183,null,null],[224,"CDISCPILOT01","CM","01-701-1034",91,"6","VITAMIN C","UNCODED","PROPHYLAXIS OR NON-THERAPEUTIC USE","UNCODED",1,"TABLET","QD","ORAL",13,"WEEK 26",182,"TREATMENT","2014-12-30","1986","",183,null,null],[225,"CDISCPILOT01","CM","01-701-1034",92,"7","VITAMIN E","UNCODED","PROPHYLAXIS OR NON-THERAPEUTIC USE","UNCODED",1,"TABLET","QD","ORAL",13,"WEEK 26",182,"TREATMENT","2014-12-30","1986","",183,null,null],[226,"CDISCPILOT01","CM","01-701-1034",93,"3","EX-LAX","UNCODED","","UNCODED",1,"TABLET","QD","ORAL",13,"WEEK 26",182,"TREATMENT","2014-12-30","2001","",183,null,null],[227,"CDISCPILOT01","CM","01-701-1034",94,"1","CALCIUM","CALCIUM","PROPHYLAXIS OR NON-THERAPEUTIC USE","ALIMENTARY TRACT AND METABOLISM",1,"TABLET","QD","ORAL",13,"WEEK 26",182,"TREATMENT","2014-12-30","2012","",183,null,null],[228,"CDISCPILOT01","CM","01-701-1034",95,"4","IRON","UNCODED","PROPHYLAXIS OR NON-THERAPEUTIC USE","UNCODED",1,"TABLET","QD","ORAL",13,"WEEK 26",182,"TREATMENT","2014-12-30","2012","",183,null,null],[229,"CDISCPILOT01","CM","01-701-1034",96,"8","HYDROCORTISONE","HYDROCORTISONE","","SYSTEMIC HORMONAL PREPARATIONS, EXCL.",1,"TABLET","BID","TOPICAL",13,"WEEK 26",182,"TREATMENT","2014-12-30","2014-08-27","",183,58,null],[230,"CDISCPILOT01","CM","01-701-1047",1,"2","CENTRUM","UNCODED","PROPHYLAXIS OR NON-THERAPEUTIC USE","UNCODED",1,"TABLET","QD","ORAL",1,"SCREENING 1",-7,"SCREENING","2013-01-22","2002","",-21,null,null],[231,"CDISCPILOT01","CM","01-701-1047",2,"1","ALEVE","NAPROXEN SODIUM","","RESPIRATORY SYSTEM",250,"mg","PRN","ORAL",1,"SCREENING 1",-7,"SCREENING","2013-01-22","2009","",-21,null,null],[232,"CDISCPILOT01","CM","01-701-1047",3,"4","PSORCON","UNCODED","","UNCODED",0.5,"mg","QID","TOPICAL",1,"SCREENING 1",-7,"SCREENING","2013-01-22","2009","",-21,null,null],[233,"CDISCPILOT01","CM","01-701-1047",4,"5","SYNTHROID","UNCODED","","UNCODED",0.15,"mg","QD","ORAL",1,"SCREENING 1",-7,"SCREENING","2013-01-22","2009","",-21,null,null],[234,"CDISCPILOT01","CM","01-701-1047",5,"3","PAPAYA","UNCODED","","UNCODED",2,"TABLET","PRN","ORAL",1,"SCREENING 1",-7,"SCREENING","2013-01-22","2012-10","",-21,null,null],[235,"CDISCPILOT01","CM","01-701-1047",6,"2","CENTRUM","UNCODED","PROPHYLAXIS OR NON-THERAPEUTIC USE","UNCODED",1,"TABLET","QD","ORAL",2,"SCREENING 2",-1,"SCREENING","2013-02-10","2002","",-2,null,null],[236,"CDISCPILOT01","CM","01-701-1047",7,"1","ALEVE","NAPROXEN SODIUM","","RESPIRATORY SYSTEM",250,"mg","PRN","ORAL",2,"SCREENING 2",-1,"SCREENING","2013-02-10","2009","",-2,null,null],[237,"CDISCPILOT01","CM","01-701-1047",8,"4","PSORCON","UNCODED","","UNCODED",0.5,"mg","QID","TOPICAL",2,"SCREENING 2",-1,"SCREENING","2013-02-10","2009","",-2,null,null],[238,"CDISCPILOT01","CM","01-701-1047",9,"5","SYNTHROID","UNCODED","","UNCODED",0.15,"mg","QD","ORAL",2,"SCREENING 2",-1,"SCREENING","2013-02-10","2009","",-2,null,null],[239,"CDISCPILOT01","CM","01-701-1047",10,"3","PAPAYA","UNCODED","","UNCODED",2,"TABLET","PRN","ORAL",2,"SCREENING 2",-1,"SCREENING","2013-02-10","2012-10","",-2,null,null],[240,"CDISCPILOT01","CM","01-701-1047",11,"6","FELDENE","UNCODED","","UNCODED",10,"mg","QD","ORAL",2,"SCREENING 2",-1,"SCREENING","2013-02-10","2013-02-01","2013-02-01",-2,-11,-11],[241,"CDISCPILOT01","CM","01-701-1047",12,"2","CENTRUM","UNCODED","PROPHYLAXIS OR NON-THERAPEUTIC USE","UNCODED",1,"TABLET","QD","ORAL",3,"BASELINE",1,"TREATMENT","2013-02-12","2002","",1,null,null],[242,"CDISCPILOT01","CM","01-701-1047",13,"1","ALEVE","NAPROXEN SODIUM","","RESPIRATORY SYSTEM",250,"mg","PRN","ORAL",3,"BASELINE",1,"TREATMENT","2013-02-12","2009","",1,null,null],[243,"CDISCPILOT01","CM","01-701-1047",14,"4","PSORCON","UNCODED","","UNCODED",0.5,"mg","QID","TOPICAL",3,"BASELINE",1,"TREATMENT","2013-02-12","2009","",1,null,null],[244,"CDISCPILOT01","CM","01-701-1047",15,"5","SYNTHROID","UNCODED","","UNCODED",0.15,"mg","QD","ORAL",3,"BASELINE",1,"TREATMENT","2013-02-12","2009","",1,null,null],[245,"CDISCPILOT01","CM","01-701-1047",16,"3","PAPAYA","UNCODED","","UNCODED",2,"TABLET","PRN","ORAL",3,"BASELINE",1,"TREATMENT","2013-02-12","2012-10","",1,null,null],[246,"CDISCPILOT01","CM","01-701-1047",17,"2","CENTRUM","UNCODED","PROPHYLAXIS OR NON-THERAPEUTIC USE","UNCODED",1,"TABLET","QD","ORAL",4,"WEEK 2",14,"TREATMENT","2013-02-25","2002","",14,null,null],[247,"CDISCPILOT01","CM","01-701-1047",18,"1","ALEVE","NAPROXEN SODIUM","","RESPIRATORY SYSTEM",250,"mg","PRN","ORAL",4,"WEEK 2",14,"TREATMENT","2013-02-25","2009","",14,null,null],[248,"CDISCPILOT01","CM","01-701-1047",19,"4","PSORCON","UNCODED","","UNCODED",0.5,"mg","QID","TOPICAL",4,"WEEK 2",14,"TREATMENT","2013-02-25","2009","",14,null,null],[249,"CDISCPILOT01","CM","01-701-1047",20,"5","SYNTHROID","UNCODED","","UNCODED",0.15,"mg","QD","ORAL",4,"WEEK 2",14,"TREATMENT","2013-02-25","2009","",14,null,null],[250,"CDISCPILOT01","CM","01-701-1047",21,"3","PAPAYA","UNCODED","","UNCODED",2,"TABLET","PRN","ORAL",4,"WEEK 2",14,"TREATMENT","2013-02-25","2012-10","",14,null,null],[251,"CDISCPILOT01","CM","01-701-1047",22,"2","CENTRUM","UNCODED","PROPHYLAXIS OR NON-THERAPEUTIC USE","UNCODED",1,"TABLET","QD","ORAL",5,"WEEK 4",28,"TREATMENT","2013-03-10","2002","",27,null,null],[252,"CDISCPILOT01","CM","01-701-1047",23,"1","ALEVE","NAPROXEN SODIUM","","RESPIRATORY SYSTEM",250,"mg","PRN","ORAL",5,"WEEK 4",28,"TREATMENT","2013-03-10","2009","",27,null,null],[253,"CDISCPILOT01","CM","01-701-1047",24,"4","PSORCON","UNCODED","","UNCODED",0.5,"mg","QID","TOPICAL",5,"WEEK 4",28,"TREATMENT","2013-03-10","2009","",27,null,null],[254,"CDISCPILOT01","CM","01-701-1047",25,"5","SYNTHROID","UNCODED","","UNCODED",0.15,"mg","QD","ORAL",5,"WEEK 4",28,"TREATMENT","2013-03-10","2009","",27,null,null],[255,"CDISCPILOT01","CM","01-701-1047",26,"3","PAPAYA","UNCODED","","UNCODED",2,"TABLET","PRN","ORAL",5,"WEEK 4",28,"TREATMENT","2013-03-10","2012-10","",27,null,null],[256,"CDISCPILOT01","CM","01-701-1047",27,"7","ROBITUSSIN-DM","UNCODED","","UNCODED",2,"TABLET","QID","ORAL",5,"WEEK 4",28,"TREATMENT","2013-03-10","2013-03-07","",27,24,null],[257,"CDISCPILOT01","CM","01-701-1047",28,"8","SUDAFED","UNCODED","","UNCODED",2,"TABLET","QID","ORAL",5,"WEEK 4",28,"TREATMENT","2013-03-10","2013-03-07","",27,24,null],[258,"CDISCPILOT01","CM","01-701-1047",29,"2","CENTRUM","UNCODED","PROPHYLAXIS OR NON-THERAPEUTIC USE","UNCODED",1,"TABLET","QD","ORAL",6,"AMBUL ECG REMOVAL",30,"TREATMENT","2013-03-29","2002","",46,null,null],[259,"CDISCPILOT01","CM","01-701-1047",30,"1","ALEVE","NAPROXEN SODIUM","","RESPIRATORY SYSTEM",250,"mg","PRN","ORAL",6,"AMBUL ECG REMOVAL",30,"TREATMENT","2013-03-29","2009","",46,null,null],[260,"CDISCPILOT01","CM","01-701-1047",31,"4","PSORCON","UNCODED","","UNCODED",0.5,"mg","QID","TOPICAL",6,"AMBUL ECG REMOVAL",30,"TREATMENT","2013-03-29","2009","",46,null,null],[261,"CDISCPILOT01","CM","01-701-1047",32,"5","SYNTHROID","UNCODED","","UNCODED",0.15,"mg","QD","ORAL",6,"AMBUL ECG REMOVAL",30,"TREATMENT","2013-03-29","2009","",46,null,null],[262,"CDISCPILOT01","CM","01-701-1047",33,"3","PAPAYA","UNCODED","","UNCODED",2,"TABLET","PRN","ORAL",6,"AMBUL ECG REMOVAL",30,"TREATMENT","2013-03-29","2012-10","",46,null,null],[263,"CDISCPILOT01","CM","01-701-1047",34,"7","ROBITUSSIN-DM","UNCODED","","UNCODED",2,"TABLET","QID","ORAL",6,"AMBUL ECG REMOVAL",30,"TREATMENT","2013-03-29","2013-03-07","",46,24,null],[264,"CDISCPILOT01","CM","01-701-1047",35,"8","SUDAFED","UNCODED","","UNCODED",2,"TABLET","QID","ORAL",6,"AMBUL ECG REMOVAL",30,"TREATMENT","2013-03-29","2013-03-07","",46,24,null],[265,"CDISCPILOT01","CM","01-701-1047",36,"2","CENTRUM","UNCODED","PROPHYLAXIS OR NON-THERAPEUTIC USE","UNCODED",1,"TABLET","QD","ORAL",201,"RETRIEVAL",168,"TREATMENT","2013-07-28","2002","",167,null,null],[266,"CDISCPILOT01","CM","01-701-1047",37,"1","ALEVE","NAPROXEN SODIUM","","RESPIRATORY SYSTEM",250,"mg","PRN","ORAL",201,"RETRIEVAL",168,"TREATMENT","2013-07-28","2009","",167,null,null],[267,"CDISCPILOT01","CM","01-701-1047",38,"4","PSORCON","UNCODED","","UNCODED",0.5,"mg","QID","TOPICAL",201,"RETRIEVAL",168,"TREATMENT","2013-07-28","2009","",167,null,null],[268,"CDISCPILOT01","CM","01-701-1047",39,"5","SYNTHROID","UNCODED","","UNCODED",0.15,"mg","QD","ORAL",201,"RETRIEVAL",168,"TREATMENT","2013-07-28","2009","",167,null,null],[269,"CDISCPILOT01","CM","01-701-1047",40,"3","PAPAYA","UNCODED","","UNCODED",2,"TABLET","PRN","ORAL",201,"RETRIEVAL",168,"TREATMENT","2013-07-28","2012-10","",167,null,null],[270,"CDISCPILOT01","CM","01-701-1047",41,"7","ROBITUSSIN-DM","UNCODED","","UNCODED",2,"TABLET","QID","ORAL",201,"RETRIEVAL",168,"TREATMENT","2013-07-28","2013-03-07","",167,24,null],[271,"CDISCPILOT01","CM","01-701-1047",42,"8","SUDAFED","UNCODED","","UNCODED",2,"TABLET","QID","ORAL",201,"RETRIEVAL",168,"TREATMENT","2013-07-28","2013-03-07","",167,24,null],[272,"CDISCPILOT01","CM","01-701-1097",1,"1","CENTRUM","UNCODED","PROPHYLAXIS OR NON-THERAPEUTIC USE","UNCODED",1,"TABLET","QD","ORAL",1,"SCREENING 1",-7,"SCREENING","2013-12-23","2013-10","",-9,null,null],[273,"CDISCPILOT01","CM","01-701-1097",2,"1","CENTRUM","UNCODED","PROPHYLAXIS OR NON-THERAPEUTIC USE","UNCODED",1,"TABLET","QD","ORAL",2,"SCREENING 2",-1,"SCREENING","2013-12-30","2013-10","",-2,null,null],[274,"CDISCPILOT01","CM","01-701-1097",3,"1","CENTRUM","UNCODED","PROPHYLAXIS OR NON-THERAPEUTIC USE","UNCODED",1,"TABLET","QD","ORAL",3,"BASELINE",1,"TREATMENT","2014-01-01","2013-10","",1,null,null],[275,"CDISCPILOT01","CM","01-701-1097",4,"1","CENTRUM","UNCODED","PROPHYLAXIS OR NON-THERAPEUTIC USE","UNCODED",1,"TABLET","QD","ORAL",4,"WEEK 2",14,"TREATMENT","2014-01-15","2013-10","",15,null,null],[276,"CDISCPILOT01","CM","01-701-1097",5,"1","CENTRUM","UNCODED","PROPHYLAXIS OR NON-THERAPEUTIC USE","UNCODED",1,"TABLET","QD","ORAL",5,"WEEK 4",28,"TREATMENT","2014-01-29","2013-10","",29,null,null],[277,"CDISCPILOT01","CM","01-701-1097",6,"1","CENTRUM","UNCODED","PROPHYLAXIS OR NON-THERAPEUTIC USE","UNCODED",1,"TABLET","QD","ORAL",6,"AMBUL ECG REMOVAL",30,"TREATMENT","2014-02-04","2013-10","",35,null,null],[278,"CDISCPILOT01","CM","01-701-1097",7,"1","CENTRUM","UNCODED","PROPHYLAXIS OR NON-THERAPEUTIC USE","UNCODED",1,"TABLET","QD","ORAL",7,"WEEK 6",42,"TREATMENT","2014-02-11","2013-10","",42,null,null],[279,"CDISCPILOT01","CM","01-701-1097",8,"1","CENTRUM","UNCODED","PROPHYLAXIS OR NON-THERAPEUTIC USE","UNCODED",1,"TABLET","QD","ORAL",8,"WEEK 8",56,"TREATMENT","2014-02-26","2013-10","",57,null,null],[280,"CDISCPILOT01","CM","01-701-1097",9,"2","HYDROCORTISONE","HYDROCORTISONE","","SYSTEMIC HORMONAL PREPARATIONS, EXCL.",1,"TABLET","QD","TOPICAL",8,"WEEK 8",56,"TREATMENT","2014-02-26","2014-02-20","2014-02-25",57,51,56],[281,"CDISCPILOT01","CM","01-701-1097",10,"1","CENTRUM","UNCODED","PROPHYLAXIS OR NON-THERAPEUTIC USE","UNCODED",1,"TABLET","QD","ORAL",9,"WEEK 12",84,"TREATMENT","2014-03-26","2013-10","",85,null,null],[282,"CDISCPILOT01","CM","01-701-1097",11,"3","HYDROCORTISONE","HYDROCORTISONE","","SYSTEMIC HORMONAL PREPARATIONS, EXCL.",1,"TABLET","QD","TOPICAL",9,"WEEK 12",84,"TREATMENT","2014-03-26","2014-03-21","2014-03-23",85,80,82],[283,"CDISCPILOT01","CM","01-701-1097",12,"1","CENTRUM","UNCODED","PROPHYLAXIS OR NON-THERAPEUTIC USE","UNCODED",1,"TABLET","QD","ORAL",10,"WEEK 16",112,"TREATMENT","2014-04-23","2013-10","",113,null,null],[284,"CDISCPILOT01","CM","01-701-1097",13,"4","HYDROCORTISONE","HYDROCORTISONE","","SYSTEMIC HORMONAL PREPARATIONS, EXCL.",1,"TABLET","QD","TOPICAL",10,"WEEK 16",112,"TREATMENT","2014-04-23","2014-04-18","2014-04-22",113,108,112],[285,"CDISCPILOT01","CM","01-701-1097",14,"1","CENTRUM","UNCODED","PROPHYLAXIS OR NON-THERAPEUTIC USE","UNCODED",1,"TABLET","QD","ORAL",11,"WEEK 20",140,"TREATMENT","2014-05-21","2013-10","",141,null,null],[286,"CDISCPILOT01","CM","01-701-1097",15,"1","CENTRUM","UNCODED","PROPHYLAXIS OR NON-THERAPEUTIC USE","UNCODED",1,"TABLET","QD","ORAL",12,"WEEK 24",168,"TREATMENT","2014-06-18","2013-10","",169,null,null],[287,"CDISCPILOT01","CM","01-701-1097",16,"5","HYDROCORTISONE","HYDROCORTISONE","","SYSTEMIC HORMONAL PREPARATIONS, EXCL.",1,"TABLET","PRN","TOPICAL",12,"WEEK 24",168,"TREATMENT","2014-06-18","2014-05-23","",169,143,null],[288,"CDISCPILOT01","CM","01-701-1097",17,"1","CENTRUM","UNCODED","PROPHYLAXIS OR NON-THERAPEUTIC USE","UNCODED",1,"TABLET","QD","ORAL",13,"WEEK 26",182,"TREATMENT","2014-07-09","2013-10","",190,null,null],[289,"CDISCPILOT01","CM","01-701-1097",18,"5","HYDROCORTISONE","HYDROCORTISONE","","SYSTEMIC HORMONAL PREPARATIONS, EXCL.",1,"TABLET","PRN","TOPICAL",13,"WEEK 26",182,"TREATMENT","2014-07-09","2014-05-23","",190,143,null],[290,"CDISCPILOT01","CM","01-701-1111",1,"6","SYNTHROID","UNCODED","","UNCODED",0.075,"mg","QD","ORAL",1,"SCREENING 1",-7,"SCREENING","2012-08-25","1983","",-13,null,null],[291,"CDISCPILOT01","CM","01-701-1111",2,"4","PREMARIN","ESTROGENS CONJUGATED","","GENITO URINARY SYSTEM AND SEX HORMONES",0.625,"mg","","ORAL",1,"SCREENING 1",-7,"SCREENING","2012-08-25","1996","",-13,null,null],[292,"CDISCPILOT01","CM","01-701-1111",3,"5","PROVERA","UNCODED","","UNCODED",2.5,"mg","","ORAL",1,"SCREENING 1",-7,"SCREENING","2012-08-25","1996","",-13,null,null],[293,"CDISCPILOT01","CM","01-701-1111",4,"2","LISINOPRIL","UNCODED","","UNCODED",2.5,"mg","QD","ORAL",1,"SCREENING 1",-7,"SCREENING","2012-08-25","2006","",-13,null,null],[294,"CDISCPILOT01","CM","01-701-1111",5,"3","MOTRIN","UNCODED","","UNCODED",1,"TABLET","PRN","ORAL",1,"SCREENING 1",-7,"SCREENING","2012-08-25","2009","",-13,null,null],[295,"CDISCPILOT01","CM","01-701-1111",6,"1","KEFLEX","UNCODED","","UNCODED",500,"mg","QID","ORAL",1,"SCREENING 1",-7,"SCREENING","2012-08-25","2012-07-08","",-13,-61,null],[296,"CDISCPILOT01","CM","01-701-1111",7,"6","SYNTHROID","UNCODED","","UNCODED",0.075,"mg","QD","ORAL",2,"SCREENING 2",-1,"SCREENING","2012-09-05","1983","",-2,null,null],[297,"CDISCPILOT01","CM","01-701-1111",8,"4","PREMARIN","ESTROGENS CONJUGATED","","GENITO URINARY SYSTEM AND SEX HORMONES",0.625,"mg","","ORAL",2,"SCREENING 2",-1,"SCREENING","2012-09-05","1996","",-2,null,null],[298,"CDISCPILOT01","CM","01-701-1111",9,"5","PROVERA","UNCODED","","UNCODED",2.5,"mg","","ORAL",2,"SCREENING 2",-1,"SCREENING","2012-09-05","1996","",-2,null,null],[299,"CDISCPILOT01","CM","01-701-1111",10,"2","LISINOPRIL","UNCODED","","UNCODED",2.5,"mg","QD","ORAL",2,"SCREENING 2",-1,"SCREENING","2012-09-05","2006","",-2,null,null],[300,"CDISCPILOT01","CM","01-701-1111",11,"3","MOTRIN","UNCODED","","UNCODED",1,"TABLET","PRN","ORAL",2,"SCREENING 2",-1,"SCREENING","2012-09-05","2009","",-2,null,null],[301,"CDISCPILOT01","CM","01-701-1111",12,"1","KEFLEX","UNCODED","","UNCODED",500,"mg","QID","ORAL",2,"SCREENING 2",-1,"SCREENING","2012-09-05","2012-07-08","",-2,-61,null],[302,"CDISCPILOT01","CM","01-701-1111",13,"7","HYDROCORTISONE, TOPICAL","UNCODED","","UNCODED",1,"TABLET","PRN","TOPICAL",2,"SCREENING 2",-1,"SCREENING","2012-09-05","2012-09-02","2012-09-04",-2,-5,-3],[303,"CDISCPILOT01","CM","01-701-1111",14,"6","SYNTHROID","UNCODED","","UNCODED",0.075,"mg","QD","ORAL",3,"BASELINE",1,"TREATMENT","2012-09-07","1983","",1,null,null],[304,"CDISCPILOT01","CM","01-701-1111",15,"4","PREMARIN","ESTROGENS CONJUGATED","","GENITO URINARY SYSTEM AND SEX HORMONES",0.625,"mg","","ORAL",3,"BASELINE",1,"TREATMENT","2012-09-07","1996","",1,null,null],[305,"CDISCPILOT01","CM","01-701-1111",16,"5","PROVERA","UNCODED","","UNCODED",2.5,"mg","","ORAL",3,"BASELINE",1,"TREATMENT","2012-09-07","1996","",1,null,null],[306,"CDISCPILOT01","CM","01-701-1111",17,"2","LISINOPRIL","UNCODED","","UNCODED",2.5,"mg","QD","ORAL",3,"BASELINE",1,"TREATMENT","2012-09-07","2006","",1,null,null],[307,"CDISCPILOT01","CM","01-701-1111",18,"3","MOTRIN","UNCODED","","UNCODED",1,"TABLET","PRN","ORAL",3,"BASELINE",1,"TREATMENT","2012-09-07","2009","",1,null,null],[308,"CDISCPILOT01","CM","01-701-1111",19,"1","KEFLEX","UNCODED","","UNCODED",500,"mg","QID","ORAL",3,"BASELINE",1,"TREATMENT","2012-09-07","2012-07-08","",1,-61,null],[309,"CDISCPILOT01","CM","01-701-1111",20,"6","SYNTHROID","UNCODED","","UNCODED",0.075,"mg","QD","ORAL",4,"WEEK 2",14,"TREATMENT","2012-09-17","1983","",11,null,null],[310,"CDISCPILOT01","CM","01-701-1111",21,"4","PREMARIN","ESTROGENS CONJUGATED","","GENITO URINARY SYSTEM AND SEX HORMONES",0.625,"mg","","ORAL",4,"WEEK 2",14,"TREATMENT","2012-09-17","1996","",11,null,null],[311,"CDISCPILOT01","CM","01-701-1111",22,"5","PROVERA","UNCODED","","UNCODED",2.5,"mg","","ORAL",4,"WEEK 2",14,"TREATMENT","2012-09-17","1996","",11,null,null],[312,"CDISCPILOT01","CM","01-701-1111",23,"2","LISINOPRIL","UNCODED","","UNCODED",2.5,"mg","QD","ORAL",4,"WEEK 2",14,"TREATMENT","2012-09-17","2006","",11,null,null],[313,"CDISCPILOT01","CM","01-701-1111",24,"3","MOTRIN","UNCODED","","UNCODED",1,"TABLET","PRN","ORAL",4,"WEEK 2",14,"TREATMENT","2012-09-17","2009","",11,null,null],[314,"CDISCPILOT01","CM","01-701-1111",25,"1","KEFLEX","UNCODED","","UNCODED",500,"mg","QID","ORAL",4,"WEEK 2",14,"TREATMENT","2012-09-17","2012-07-08","",11,-61,null],[315,"CDISCPILOT01","CM","01-701-1111",26,"6","SYNTHROID","UNCODED","","UNCODED",0.075,"mg","QD","ORAL",101,"AE FOLLOW-UP",null,"SCREENING","2012-09-29","1983","",23,null,null],[316,"CDISCPILOT01","CM","01-701-1111",27,"4","PREMARIN","ESTROGENS CONJUGATED","","GENITO URINARY SYSTEM AND SEX HORMONES",0.625,"mg","","ORAL",101,"AE FOLLOW-UP",null,"SCREENING","2012-09-29","1996","",23,null,null],[317,"CDISCPILOT01","CM","01-701-1111",28,"5","PROVERA","UNCODED","","UNCODED",2.5,"mg","","ORAL",101,"AE FOLLOW-UP",null,"SCREENING","2012-09-29","1996","",23,null,null],[318,"CDISCPILOT01","CM","01-701-1111",29,"2","LISINOPRIL","UNCODED","","UNCODED",2.5,"mg","QD","ORAL",101,"AE FOLLOW-UP",null,"SCREENING","2012-09-29","2006","",23,null,null],[319,"CDISCPILOT01","CM","01-701-1111",30,"3","MOTRIN","UNCODED","","UNCODED",1,"TABLET","PRN","ORAL",101,"AE FOLLOW-UP",null,"SCREENING","2012-09-29","2009","",23,null,null],[320,"CDISCPILOT01","CM","01-701-1111",31,"1","KEFLEX","UNCODED","","UNCODED",500,"mg","QID","ORAL",101,"AE FOLLOW-UP",null,"SCREENING","2012-09-29","2012-07-08","",23,-61,null],[321,"CDISCPILOT01","CM","01-701-1111",32,"6","SYNTHROID","UNCODED","","UNCODED",0.075,"mg","QD","ORAL",201,"RETRIEVAL",168,"TREATMENT","2013-02-22","1983","",169,null,null],[322,"CDISCPILOT01","CM","01-701-1111",33,"4","PREMARIN","ESTROGENS CONJUGATED","","GENITO URINARY SYSTEM AND SEX HORMONES",0.625,"mg","","ORAL",201,"RETRIEVAL",168,"TREATMENT","2013-02-22","1996","",169,null,null],[323,"CDISCPILOT01","CM","01-701-1111",34,"5","PROVERA","UNCODED","","UNCODED",2.5,"mg","","ORAL",201,"RETRIEVAL",168,"TREATMENT","2013-02-22","1996","",169,null,null],[324,"CDISCPILOT01","CM","01-701-1111",35,"2","LISINOPRIL","UNCODED","","UNCODED",2.5,"mg","QD","ORAL",201,"RETRIEVAL",168,"TREATMENT","2013-02-22","2006","",169,null,null],[325,"CDISCPILOT01","CM","01-701-1111",36,"3","MOTRIN","UNCODED","","UNCODED",1,"TABLET","PRN","ORAL",201,"RETRIEVAL",168,"TREATMENT","2013-02-22","2009","",169,null,null],[326,"CDISCPILOT01","CM","01-701-1111",37,"1","KEFLEX","UNCODED","","UNCODED",500,"mg","QID","ORAL",201,"RETRIEVAL",168,"TREATMENT","2013-02-22","2012-07-08","",169,-61,null],[327,"CDISCPILOT01","CM","01-701-1115",1,"1","ASPIRIN","ACETYLSALICYLIC ACID","","NERVOUS SYSTEM",1,"TABLET","QD","ORAL",1,"SCREENING 1",-7,"SCREENING","2012-11-23","2011","",-7,null,null],[328,"CDISCPILOT01","CM","01-701-1115",2,"2","METAMUCIL","UNCODED","","UNCODED",1,"TABLET","PRN","ORAL",1,"SCREENING 1",-7,"SCREENING","2012-11-23","2012-08","",-7,null,null],[329,"CDISCPILOT01","CM","01-701-1115",3,"1","ASPIRIN","ACETYLSALICYLIC ACID","","NERVOUS SYSTEM",1,"TABLET","QD","ORAL",2,"SCREENING 2",-1,"SCREENING","2012-11-28","2011","",-2,null,null],[330,"CDISCPILOT01","CM","01-701-1115",4,"2","METAMUCIL","UNCODED","","UNCODED",1,"TABLET","PRN","ORAL",2,"SCREENING 2",-1,"SCREENING","2012-11-28","2012-08","",-2,null,null],[331,"CDISCPILOT01","CM","01-701-1115",5,"1","ASPIRIN","ACETYLSALICYLIC ACID","","NERVOUS SYSTEM",1,"TABLET","QD","ORAL",3,"BASELINE",1,"TREATMENT","2012-11-30","2011","",1,null,null],[332,"CDISCPILOT01","CM","01-701-1115",6,"2","METAMUCIL","UNCODED","","UNCODED",1,"TABLET","PRN","ORAL",3,"BASELINE",1,"TREATMENT","2012-11-30","2012-08","",1,null,null],[333,"CDISCPILOT01","CM","01-701-1115",7,"1","ASPIRIN","ACETYLSALICYLIC ACID","","NERVOUS SYSTEM",1,"TABLET","QD","ORAL",4,"WEEK 2",14,"TREATMENT","2012-12-13","2011","",14,null,null],[334,"CDISCPILOT01","CM","01-701-1115",8,"2","METAMUCIL","UNCODED","","UNCODED",1,"TABLET","PRN","ORAL",4,"WEEK 2",14,"TREATMENT","2012-12-13","2012-08","",14,null,null],[335,"CDISCPILOT01","CM","01-701-1115",9,"1","ASPIRIN","ACETYLSALICYLIC ACID","","NERVOUS SYSTEM",1,"TABLET","QD","ORAL",5,"WEEK 4",28,"TREATMENT","2012-12-26","2011","",27,null,null],[336,"CDISCPILOT01","CM","01-701-1115",10,"2","METAMUCIL","UNCODED","","UNCODED",1,"TABLET","PRN","ORAL",5,"WEEK 4",28,"TREATMENT","2012-12-26","2012-08","",27,null,null],[337,"CDISCPILOT01","CM","01-701-1115",11,"1","ASPIRIN","ACETYLSALICYLIC ACID","","NERVOUS SYSTEM",1,"TABLET","QD","ORAL",6,"AMBUL ECG REMOVAL",30,"TREATMENT","2012-12-28","2011","",29,null,null],[338,"CDISCPILOT01","CM","01-701-1115",12,"2","METAMUCIL","UNCODED","","UNCODED",1,"TABLET","PRN","ORAL",6,"AMBUL ECG REMOVAL",30,"TREATMENT","2012-12-28","2012-08","",29,null,null],[339,"CDISCPILOT01","CM","01-701-1115",13,"1","ASPIRIN","ACETYLSALICYLIC ACID","","NERVOUS SYSTEM",1,"TABLET","QD","ORAL",7,"WEEK 6",42,"TREATMENT","2013-01-10","2011","",42,null,null],[340,"CDISCPILOT01","CM","01-701-1115",14,"2","METAMUCIL","UNCODED","","UNCODED",1,"TABLET","PRN","ORAL",7,"WEEK 6",42,"TREATMENT","2013-01-10","2012-08","",42,null,null],[341,"CDISCPILOT01","CM","01-701-1115",15,"1","ASPIRIN","ACETYLSALICYLIC ACID","","NERVOUS SYSTEM",1,"TABLET","QD","ORAL",8,"WEEK 8",56,"TREATMENT","2013-01-23","2011","",55,null,null],[342,"CDISCPILOT01","CM","01-701-1115",16,"2","METAMUCIL","UNCODED","","UNCODED",1,"TABLET","PRN","ORAL",8,"WEEK 8",56,"TREATMENT","2013-01-23","2012-08","",55,null,null],[343,"CDISCPILOT01","CM","01-701-1115",17,"3","HYDROCORTISONE, TOPICAL","UNCODED","","UNCODED",1,"TABLET","PRN","TOPICAL",8,"WEEK 8",56,"TREATMENT","2013-01-23","2013-01-11","",55,43,null],[344,"CDISCPILOT01","CM","01-701-1115",18,"1","ASPIRIN","ACETYLSALICYLIC ACID","","NERVOUS SYSTEM",1,"TABLET","QD","ORAL",101,"AE FOLLOW-UP",null,"SCREENING","2013-02-14","2011","",77,null,null],[345,"CDISCPILOT01","CM","01-701-1115",19,"2","METAMUCIL","UNCODED","","UNCODED",1,"TABLET","PRN","ORAL",101,"AE FOLLOW-UP",null,"SCREENING","2013-02-14","2012-08","",77,null,null],[346,"CDISCPILOT01","CM","01-701-1115",20,"3","HYDROCORTISONE, TOPICAL","UNCODED","","UNCODED",1,"TABLET","PRN","TOPICAL",101,"AE FOLLOW-UP",null,"SCREENING","2013-02-14","2013-01-11","",77,43,null],[347,"CDISCPILOT01","CM","01-701-1115",21,"1","ASPIRIN","ACETYLSALICYLIC ACID","","NERVOUS SYSTEM",1,"TABLET","QD","ORAL",201,"RETRIEVAL",168,"TREATMENT","2013-05-20","2011","",172,null,null],[348,"CDISCPILOT01","CM","01-701-1115",22,"2","METAMUCIL","UNCODED","","UNCODED",1,"TABLET","PRN","ORAL",201,"RETRIEVAL",168,"TREATMENT","2013-05-20","2012-08","",172,null,null],[349,"CDISCPILOT01","CM","01-701-1115",23,"3","HYDROCORTISONE, TOPICAL","UNCODED","","UNCODED",1,"TABLET","PRN","TOPICAL",201,"RETRIEVAL",168,"TREATMENT","2013-05-20","2013-01-11","",172,43,null],[350,"CDISCPILOT01","CM","01-701-1115",24,"6","HYTRIN","UNCODED","","UNCODED",2,"TABLET","QD","ORAL",201,"RETRIEVAL",168,"TREATMENT","2013-05-20","2013-04-19","2013-05-14",172,141,166],[351,"CDISCPILOT01","CM","01-701-1115",25,"4","ASPIRIN","ACETYLSALICYLIC ACID","PROPHYLAXIS OR NON-THERAPEUTIC USE","NERVOUS SYSTEM",80,"mg","QD","ORAL",201,"RETRIEVAL",168,"TREATMENT","2013-05-20","2013-04-29","",172,151,null],[352,"CDISCPILOT01","CM","01-701-1115",26,"5","FEOSOL","UNCODED","PROPHYLAXIS OR NON-THERAPEUTIC USE","UNCODED",325,"mg","BID","ORAL",201,"RETRIEVAL",168,"TREATMENT","2013-05-20","2013-04-29","",172,151,null],[353,"CDISCPILOT01","CM","01-701-1115",27,"7","PRAVACHOL","UNCODED","","UNCODED",20,"mg","QD","ORAL",201,"RETRIEVAL",168,"TREATMENT","2013-05-20","2013-05-08","",172,160,null],[354,"CDISCPILOT01","CM","01-701-1118",1,"1","ASPIRIN","ACETYLSALICYLIC ACID","PROPHYLAXIS OR NON-THERAPEUTIC USE","NERVOUS SYSTEM",325,"mg","PRN","ORAL",1,"SCREENING 1",-7,"SCREENING","2014-02-27","2000-12-10","",-13,-4840,null],[355,"CDISCPILOT01","CM","01-701-1118",2,"2","MULTIVITAMIN","UNCODED","PROPHYLAXIS OR NON-THERAPEUTIC USE","UNCODED",1,"TABLET","QD","ORAL",1,"SCREENING 1",-7,"SCREENING","2014-02-27","2012-01-21","",-13,-781,null],[356,"CDISCPILOT01","CM","01-701-1118",3,"1","ASPIRIN","ACETYLSALICYLIC ACID","PROPHYLAXIS OR NON-THERAPEUTIC USE","NERVOUS SYSTEM",325,"mg","PRN","ORAL",2,"SCREENING 2",-1,"SCREENING","2014-03-10","2000-12-10","",-2,-4840,null],[357,"CDISCPILOT01","CM","01-701-1118",4,"2","MULTIVITAMIN","UNCODED","PROPHYLAXIS OR NON-THERAPEUTIC USE","UNCODED",1,"TABLET","QD","ORAL",2,"SCREENING 2",-1,"SCREENING","2014-03-10","2012-01-21","",-2,-781,null],[358,"CDISCPILOT01","CM","01-701-1118",5,"1","ASPIRIN","ACETYLSALICYLIC ACID","PROPHYLAXIS OR NON-THERAPEUTIC USE","NERVOUS SYSTEM",325,"mg","PRN","ORAL",3,"BASELINE",1,"TREATMENT","2014-03-12","2000-12-10","",1,-4840,null],[359,"CDISCPILOT01","CM","01-701-1118",6,"2","MULTIVITAMIN","UNCODED","PROPHYLAXIS OR NON-THERAPEUTIC USE","UNCODED",1,"TABLET","QD","ORAL",3,"BASELINE",1,"TREATMENT","2014-03-12","2012-01-21","",1,-781,null],[360,"CDISCPILOT01","CM","01-701-1118",7,"1","ASPIRIN","ACETYLSALICYLIC ACID","PROPHYLAXIS OR NON-THERAPEUTIC USE","NERVOUS SYSTEM",325,"mg","PRN","ORAL",4,"WEEK 2",14,"TREATMENT","2014-03-26","2000-12-10","",15,-4840,null],[361,"CDISCPILOT01","CM","01-701-1118",8,"2","MULTIVITAMIN","UNCODED","PROPHYLAXIS OR NON-THERAPEUTIC USE","UNCODED",1,"TABLET","QD","ORAL",4,"WEEK 2",14,"TREATMENT","2014-03-26","2012-01-21","",15,-781,null],[362,"CDISCPILOT01","CM","01-701-1118",9,"1","ASPIRIN","ACETYLSALICYLIC ACID","PROPHYLAXIS OR NON-THERAPEUTIC USE","NERVOUS SYSTEM",325,"mg","PRN","ORAL",5,"WEEK 4",28,"TREATMENT","2014-04-09","2000-12-10","",29,-4840,null],[363,"CDISCPILOT01","CM","01-701-1118",10,"2","MULTIVITAMIN","UNCODED","PROPHYLAXIS OR NON-THERAPEUTIC USE","UNCODED",1,"TABLET","QD","ORAL",5,"WEEK 4",28,"TREATMENT","2014-04-09","2012-01-21","",29,-781,null],[364,"CDISCPILOT01","CM","01-701-1118",11,"1","ASPIRIN","ACETYLSALICYLIC ACID","PROPHYLAXIS OR NON-THERAPEUTIC USE","NERVOUS SYSTEM",325,"mg","PRN","ORAL",6,"AMBUL ECG REMOVAL",30,"TREATMENT","2014-04-11","2000-12-10","",31,-4840,null],[365,"CDISCPILOT01","CM","01-701-1118",12,"2","MULTIVITAMIN","UNCODED","PROPHYLAXIS OR NON-THERAPEUTIC USE","UNCODED",1,"TABLET","QD","ORAL",6,"AMBUL ECG REMOVAL",30,"TREATMENT","2014-04-11","2012-01-21","",31,-781,null],[366,"CDISCPILOT01","CM","01-701-1118",13,"1","ASPIRIN","ACETYLSALICYLIC ACID","PROPHYLAXIS OR NON-THERAPEUTIC USE","NERVOUS SYSTEM",325,"mg","PRN","ORAL",7,"WEEK 6",42,"TREATMENT","2014-04-23","2000-12-10","",43,-4840,null],[367,"CDISCPILOT01","CM","01-701-1118",14,"2","MULTIVITAMIN","UNCODED","PROPHYLAXIS OR NON-THERAPEUTIC USE","UNCODED",1,"TABLET","QD","ORAL",7,"WEEK 6",42,"TREATMENT","2014-04-23","2012-01-21","",43,-781,null],[368,"CDISCPILOT01","CM","01-701-1118",15,"1","ASPIRIN","ACETYLSALICYLIC ACID","PROPHYLAXIS OR NON-THERAPEUTIC USE","NERVOUS SYSTEM",325,"mg","PRN","ORAL",8,"WEEK 8",56,"TREATMENT","2014-05-08","2000-12-10","",58,-4840,null],[369,"CDISCPILOT01","CM","01-701-1118",16,"2","MULTIVITAMIN","UNCODED","PROPHYLAXIS OR NON-THERAPEUTIC USE","UNCODED",1,"TABLET","QD","ORAL",8,"WEEK 8",56,"TREATMENT","2014-05-08","2012-01-21","",58,-781,null],[370,"CDISCPILOT01","CM","01-701-1118",17,"1","ASPIRIN","ACETYLSALICYLIC ACID","PROPHYLAXIS OR NON-THERAPEUTIC USE","NERVOUS SYSTEM",325,"mg","PRN","ORAL",9,"WEEK 12",84,"TREATMENT","2014-06-05","2000-12-10","",86,-4840,null],[371,"CDISCPILOT01","CM","01-701-1118",18,"2","MULTIVITAMIN","UNCODED","PROPHYLAXIS OR NON-THERAPEUTIC USE","UNCODED",1,"TABLET","QD","ORAL",9,"WEEK 12",84,"TREATMENT","2014-06-05","2012-01-21","",86,-781,null],[372,"CDISCPILOT01","CM","01-701-1118",19,"1","ASPIRIN","ACETYLSALICYLIC ACID","PROPHYLAXIS OR NON-THERAPEUTIC USE","NERVOUS SYSTEM",325,"mg","PRN","ORAL",10,"WEEK 16",112,"TREATMENT","2014-07-02","2000-12-10","",113,-4840,null],[373,"CDISCPILOT01","CM","01-701-1118",20,"2","MULTIVITAMIN","UNCODED","PROPHYLAXIS OR NON-THERAPEUTIC USE","UNCODED",1,"TABLET","QD","ORAL",10,"WEEK 16",112,"TREATMENT","2014-07-02","2012-01-21","",113,-781,null],[374,"CDISCPILOT01","CM","01-701-1118",21,"1","ASPIRIN","ACETYLSALICYLIC ACID","PROPHYLAXIS OR NON-THERAPEUTIC USE","NERVOUS SYSTEM",325,"mg","PRN","ORAL",11,"WEEK 20",140,"TREATMENT","2014-07-30","2000-12-10","",141,-4840,null],[375,"CDISCPILOT01","CM","01-701-1118",22,"2","MULTIVITAMIN","UNCODED","PROPHYLAXIS OR NON-THERAPEUTIC USE","UNCODED",1,"TABLET","QD","ORAL",11,"WEEK 20",140,"TREATMENT","2014-07-30","2012-01-21","",141,-781,null],[376,"CDISCPILOT01","CM","01-701-1118",23,"1","ASPIRIN","ACETYLSALICYLIC ACID","PROPHYLAXIS OR NON-THERAPEUTIC USE","NERVOUS SYSTEM",325,"mg","PRN","ORAL",12,"WEEK 24",168,"TREATMENT","2014-08-27","2000-12-10","",169,-4840,null],[377,"CDISCPILOT01","CM","01-701-1118",24,"2","MULTIVITAMIN","UNCODED","PROPHYLAXIS OR NON-THERAPEUTIC USE","UNCODED",1,"TABLET","QD","ORAL",12,"WEEK 24",168,"TREATMENT","2014-08-27","2012-01-21","",169,-781,null],[378,"CDISCPILOT01","CM","01-701-1118",25,"1","ASPIRIN","ACETYLSALICYLIC ACID","PROPHYLAXIS OR NON-THERAPEUTIC USE","NERVOUS SYSTEM",325,"mg","PRN","ORAL",13,"WEEK 26",182,"TREATMENT","2014-09-09","2000-12-10","",182,-4840,null],[379,"CDISCPILOT01","CM","01-701-1118",26,"2","MULTIVITAMIN","UNCODED","PROPHYLAXIS OR NON-THERAPEUTIC USE","UNCODED",1,"TABLET","QD","ORAL",13,"WEEK 26",182,"TREATMENT","2014-09-09","2012-01-21","",182,-781,null],[380,"CDISCPILOT01","CM","01-701-1130",1,"1","CALCIUM","CALCIUM","PROPHYLAXIS OR NON-THERAPEUTIC USE","ALIMENTARY TRACT AND METABOLISM",1,"TABLET","QD","ORAL",1,"SCREENING 1",-7,"SCREENING","2014-02-09","2002","",-6,null,null],[381,"CDISCPILOT01","CM","01-701-1130",2,"3","MULTIVITAMINS","UNCODED","PROPHYLAXIS OR NON-THERAPEUTIC USE","UNCODED",4,"mg","QD","ORAL",1,"SCREENING 1",-7,"SCREENING","2014-02-09","2002","",-6,null,null],[382,"CDISCPILOT01","CM","01-701-1130",3,"4","POTASSIUM","UNCODED","PROPHYLAXIS OR NON-THERAPEUTIC USE","UNCODED",1,"TABLET","QD","ORAL",1,"SCREENING 1",-7,"SCREENING","2014-02-09","2002","",-6,null,null],[383,"CDISCPILOT01","CM","01-701-1130",4,"2","EUCERIN CREME","UNCODED","","UNCODED",1,"TABLET","TID","TOPICAL",1,"SCREENING 1",-7,"SCREENING","2014-02-09","2013-09","",-6,null,null],[384,"CDISCPILOT01","CM","01-701-1130",5,"1","CALCIUM","CALCIUM","PROPHYLAXIS OR NON-THERAPEUTIC USE","ALIMENTARY TRACT AND METABOLISM",1,"TABLET","QD","ORAL",2,"SCREENING 2",-1,"SCREENING","2014-02-13","2002","",-2,null,null],[385,"CDISCPILOT01","CM","01-701-1130",6,"3","MULTIVITAMINS","UNCODED","PROPHYLAXIS OR NON-THERAPEUTIC USE","UNCODED",4,"mg","QD","ORAL",2,"SCREENING 2",-1,"SCREENING","2014-02-13","2002","",-2,null,null],[386,"CDISCPILOT01","CM","01-701-1130",7,"4","POTASSIUM","UNCODED","PROPHYLAXIS OR NON-THERAPEUTIC USE","UNCODED",1,"TABLET","QD","ORAL",2,"SCREENING 2",-1,"SCREENING","2014-02-13","2002","",-2,null,null],[387,"CDISCPILOT01","CM","01-701-1130",8,"2","EUCERIN CREME","UNCODED","","UNCODED",1,"TABLET","TID","TOPICAL",2,"SCREENING 2",-1,"SCREENING","2014-02-13","2013-09","",-2,null,null],[388,"CDISCPILOT01","CM","01-701-1130",9,"1","CALCIUM","CALCIUM","PROPHYLAXIS OR NON-THERAPEUTIC USE","ALIMENTARY TRACT AND METABOLISM",1,"TABLET","QD","ORAL",3,"BASELINE",1,"TREATMENT","2014-02-15","2002","",1,null,null],[389,"CDISCPILOT01","CM","01-701-1130",10,"3","MULTIVITAMINS","UNCODED","PROPHYLAXIS OR NON-THERAPEUTIC USE","UNCODED",4,"mg","QD","ORAL",3,"BASELINE",1,"TREATMENT","2014-02-15","2002","",1,null,null],[390,"CDISCPILOT01","CM","01-701-1130",11,"4","POTASSIUM","UNCODED","PROPHYLAXIS OR NON-THERAPEUTIC USE","UNCODED",1,"TABLET","QD","ORAL",3,"BASELINE",1,"TREATMENT","2014-02-15","2002","",1,null,null],[391,"CDISCPILOT01","CM","01-701-1130",12,"2","EUCERIN CREME","UNCODED","","UNCODED",1,"TABLET","TID","TOPICAL",3,"BASELINE",1,"TREATMENT","2014-02-15","2013-09","",1,null,null],[392,"CDISCPILOT01","CM","01-701-1130",13,"1","CALCIUM","CALCIUM","PROPHYLAXIS OR NON-THERAPEUTIC USE","ALIMENTARY TRACT AND METABOLISM",1,"TABLET","QD","ORAL",4,"WEEK 2",14,"TREATMENT","2014-03-01","2002","",15,null,null],[393,"CDISCPILOT01","CM","01-701-1130",14,"3","MULTIVITAMINS","UNCODED","PROPHYLAXIS OR NON-THERAPEUTIC USE","UNCODED",4,"mg","QD","ORAL",4,"WEEK 2",14,"TREATMENT","2014-03-01","2002","",15,null,null],[394,"CDISCPILOT01","CM","01-701-1130",15,"4","POTASSIUM","UNCODED","PROPHYLAXIS OR NON-THERAPEUTIC USE","UNCODED",1,"TABLET","QD","ORAL",4,"WEEK 2",14,"TREATMENT","2014-03-01","2002","",15,null,null],[395,"CDISCPILOT01","CM","01-701-1130",16,"2","EUCERIN CREME","UNCODED","","UNCODED",1,"TABLET","TID","TOPICAL",4,"WEEK 2",14,"TREATMENT","2014-03-01","2013-09","",15,null,null],[396,"CDISCPILOT01","CM","01-701-1130",17,"1","CALCIUM","CALCIUM","PROPHYLAXIS OR NON-THERAPEUTIC USE","ALIMENTARY TRACT AND METABOLISM",1,"TABLET","QD","ORAL",5,"WEEK 4",28,"TREATMENT","2014-03-15","2002","",29,null,null],[397,"CDISCPILOT01","CM","01-701-1130",18,"3","MULTIVITAMINS","UNCODED","PROPHYLAXIS OR NON-THERAPEUTIC USE","UNCODED",4,"mg","QD","ORAL",5,"WEEK 4",28,"TREATMENT","2014-03-15","2002","",29,null,null],[398,"CDISCPILOT01","CM","01-701-1130",19,"4","POTASSIUM","UNCODED","PROPHYLAXIS OR NON-THERAPEUTIC USE","UNCODED",1,"TABLET","QD","ORAL",5,"WEEK 4",28,"TREATMENT","2014-03-15","2002","",29,null,null],[399,"CDISCPILOT01","CM","01-701-1130",20,"2","EUCERIN CREME","UNCODED","","UNCODED",1,"TABLET","TID","TOPICAL",5,"WEEK 4",28,"TREATMENT","2014-03-15","2013-09","",29,null,null],[400,"CDISCPILOT01","CM","01-701-1130",21,"5","SULFAMETHOXAZOLE","UNCODED","","UNCODED",1,"TABLET","BID","ORAL",5,"WEEK 4",28,"TREATMENT","2014-03-15","2014-03-10","2014-03-16",29,24,30],[401,"CDISCPILOT01","CM","01-701-1130",22,"1","CALCIUM","CALCIUM","PROPHYLAXIS OR NON-THERAPEUTIC USE","ALIMENTARY TRACT AND METABOLISM",1,"TABLET","QD","ORAL",6,"AMBUL ECG REMOVAL",30,"TREATMENT","2014-03-17","2002","",31,null,null],[402,"CDISCPILOT01","CM","01-701-1130",23,"3","MULTIVITAMINS","UNCODED","PROPHYLAXIS OR NON-THERAPEUTIC USE","UNCODED",4,"mg","QD","ORAL",6,"AMBUL ECG REMOVAL",30,"TREATMENT","2014-03-17","2002","",31,null,null],[403,"CDISCPILOT01","CM","01-701-1130",24,"4","POTASSIUM","UNCODED","PROPHYLAXIS OR NON-THERAPEUTIC USE","UNCODED",1,"TABLET","QD","ORAL",6,"AMBUL ECG REMOVAL",30,"TREATMENT","2014-03-17","2002","",31,null,null],[404,"CDISCPILOT01","CM","01-701-1130",25,"2","EUCERIN CREME","UNCODED","","UNCODED",1,"TABLET","TID","TOPICAL",6,"AMBUL ECG REMOVAL",30,"TREATMENT","2014-03-17","2013-09","",31,null,null],[405,"CDISCPILOT01","CM","01-701-1130",26,"5","SULFAMETHOXAZOLE","UNCODED","","UNCODED",1,"TABLET","BID","ORAL",6,"AMBUL ECG REMOVAL",30,"TREATMENT","2014-03-17","2014-03-10","2014-03-16",31,24,30],[406,"CDISCPILOT01","CM","01-701-1130",27,"1","CALCIUM","CALCIUM","PROPHYLAXIS OR NON-THERAPEUTIC USE","ALIMENTARY TRACT AND METABOLISM",1,"TABLET","QD","ORAL",7,"WEEK 6",42,"TREATMENT","2014-03-29","2002","",43,null,null],[407,"CDISCPILOT01","CM","01-701-1130",28,"3","MULTIVITAMINS","UNCODED","PROPHYLAXIS OR NON-THERAPEUTIC USE","UNCODED",4,"mg","QD","ORAL",7,"WEEK 6",42,"TREATMENT","2014-03-29","2002","",43,null,null],[408,"CDISCPILOT01","CM","01-701-1130",29,"4","POTASSIUM","UNCODED","PROPHYLAXIS OR NON-THERAPEUTIC USE","UNCODED",1,"TABLET","QD","ORAL",7,"WEEK 6",42,"TREATMENT","2014-03-29","2002","",43,null,null],[409,"CDISCPILOT01","CM","01-701-1130",30,"2","EUCERIN CREME","UNCODED","","UNCODED",1,"TABLET","TID","TOPICAL",7,"WEEK 6",42,"TREATMENT","2014-03-29","2013-09","",43,null,null],[410,"CDISCPILOT01","CM","01-701-1130",31,"1","CALCIUM","CALCIUM","PROPHYLAXIS OR NON-THERAPEUTIC USE","ALIMENTARY TRACT AND METABOLISM",1,"TABLET","QD","ORAL",8,"WEEK 8",56,"TREATMENT","2014-04-12","2002","",57,null,null],[411,"CDISCPILOT01","CM","01-701-1130",32,"3","MULTIVITAMINS","UNCODED","PROPHYLAXIS OR NON-THERAPEUTIC USE","UNCODED",4,"mg","QD","ORAL",8,"WEEK 8",56,"TREATMENT","2014-04-12","2002","",57,null,null],[412,"CDISCPILOT01","CM","01-701-1130",33,"4","POTASSIUM","UNCODED","PROPHYLAXIS OR NON-THERAPEUTIC USE","UNCODED",1,"TABLET","QD","ORAL",8,"WEEK 8",56,"TREATMENT","2014-04-12","2002","",57,null,null],[413,"CDISCPILOT01","CM","01-701-1130",34,"2","EUCERIN CREME","UNCODED","","UNCODED",1,"TABLET","TID","TOPICAL",8,"WEEK 8",56,"TREATMENT","2014-04-12","2013-09","",57,null,null],[414,"CDISCPILOT01","CM","01-701-1130",35,"1","CALCIUM","CALCIUM","PROPHYLAXIS OR NON-THERAPEUTIC USE","ALIMENTARY TRACT AND METABOLISM",1,"TABLET","QD","ORAL",9,"WEEK 12",84,"TREATMENT","2014-05-16","2002","",91,null,null],[415,"CDISCPILOT01","CM","01-701-1130",36,"3","MULTIVITAMINS","UNCODED","PROPHYLAXIS OR NON-THERAPEUTIC USE","UNCODED",4,"mg","QD","ORAL",9,"WEEK 12",84,"TREATMENT","2014-05-16","2002","",91,null,null],[416,"CDISCPILOT01","CM","01-701-1130",37,"4","POTASSIUM","UNCODED","PROPHYLAXIS OR NON-THERAPEUTIC USE","UNCODED",1,"TABLET","QD","ORAL",9,"WEEK 12",84,"TREATMENT","2014-05-16","2002","",91,null,null],[417,"CDISCPILOT01","CM","01-701-1130",38,"2","EUCERIN CREME","UNCODED","","UNCODED",1,"TABLET","TID","TOPICAL",9,"WEEK 12",84,"TREATMENT","2014-05-16","2013-09","",91,null,null],[418,"CDISCPILOT01","CM","01-701-1130",39,"6","ANTIHISTAMINES FOR SYSTEMIC USE","UNCODED","","UNCODED",2,"TABLET","PRN","ORAL",9,"WEEK 12",84,"TREATMENT","2014-05-16","2014-05-09","2014-05-09",91,84,84],[419,"CDISCPILOT01","CM","01-701-1130",40,"1","CALCIUM","CALCIUM","PROPHYLAXIS OR NON-THERAPEUTIC USE","ALIMENTARY TRACT AND METABOLISM",1,"TABLET","QD","ORAL",10,"WEEK 16",112,"TREATMENT","2014-06-07","2002","",113,null,null],[420,"CDISCPILOT01","CM","01-701-1130",41,"3","MULTIVITAMINS","UNCODED","PROPHYLAXIS OR NON-THERAPEUTIC USE","UNCODED",4,"mg","QD","ORAL",10,"WEEK 16",112,"TREATMENT","2014-06-07","2002","",113,null,null],[421,"CDISCPILOT01","CM","01-701-1130",42,"4","POTASSIUM","UNCODED","PROPHYLAXIS OR NON-THERAPEUTIC USE","UNCODED",1,"TABLET","QD","ORAL",10,"WEEK 16",112,"TREATMENT","2014-06-07","2002","",113,null,null],[422,"CDISCPILOT01","CM","01-701-1130",43,"2","EUCERIN CREME","UNCODED","","UNCODED",1,"TABLET","TID","TOPICAL",10,"WEEK 16",112,"TREATMENT","2014-06-07","2013-09","",113,null,null],[423,"CDISCPILOT01","CM","01-701-1130",44,"1","CALCIUM","CALCIUM","PROPHYLAXIS OR NON-THERAPEUTIC USE","ALIMENTARY TRACT AND METABOLISM",1,"TABLET","QD","ORAL",11,"WEEK 20",140,"TREATMENT","2014-07-02","2002","",138,null,null],[424,"CDISCPILOT01","CM","01-701-1130",45,"3","MULTIVITAMINS","UNCODED","PROPHYLAXIS OR NON-THERAPEUTIC USE","UNCODED",4,"mg","QD","ORAL",11,"WEEK 20",140,"TREATMENT","2014-07-02","2002","",138,null,null],[425,"CDISCPILOT01","CM","01-701-1130",46,"4","POTASSIUM","UNCODED","PROPHYLAXIS OR NON-THERAPEUTIC USE","UNCODED",1,"TABLET","QD","ORAL",11,"WEEK 20",140,"TREATMENT","2014-07-02","2002","",138,null,null],[426,"CDISCPILOT01","CM","01-701-1130",47,"2","EUCERIN CREME","UNCODED","","UNCODED",1,"TABLET","TID","TOPICAL",11,"WEEK 20",140,"TREATMENT","2014-07-02","2013-09","",138,null,null],[427,"CDISCPILOT01","CM","01-701-1130",48,"1","CALCIUM","CALCIUM","PROPHYLAXIS OR NON-THERAPEUTIC USE","ALIMENTARY TRACT AND METABOLISM",1,"TABLET","QD","ORAL",12,"WEEK 24",168,"TREATMENT","2014-08-02","2002","",169,null,null],[428,"CDISCPILOT01","CM","01-701-1130",49,"3","MULTIVITAMINS","UNCODED","PROPHYLAXIS OR NON-THERAPEUTIC USE","UNCODED",4,"mg","QD","ORAL",12,"WEEK 24",168,"TREATMENT","2014-08-02","2002","",169,null,null],[429,"CDISCPILOT01","CM","01-701-1130",50,"4","POTASSIUM","UNCODED","PROPHYLAXIS OR NON-THERAPEUTIC USE","UNCODED",1,"TABLET","QD","ORAL",12,"WEEK 24",168,"TREATMENT","2014-08-02","2002","",169,null,null],[430,"CDISCPILOT01","CM","01-701-1130",51,"2","EUCERIN CREME","UNCODED","","UNCODED",1,"TABLET","TID","TOPICAL",12,"WEEK 24",168,"TREATMENT","2014-08-02","2013-09","",169,null,null],[431,"CDISCPILOT01","CM","01-701-1130",52,"1","CALCIUM","CALCIUM","PROPHYLAXIS OR NON-THERAPEUTIC USE","ALIMENTARY TRACT AND METABOLISM",1,"TABLET","QD","ORAL",13,"WEEK 26",182,"TREATMENT","2014-08-16","2002","",183,null,null],[432,"CDISCPILOT01","CM","01-701-1130",53,"3","MULTIVITAMINS","UNCODED","PROPHYLAXIS OR NON-THERAPEUTIC USE","UNCODED",4,"mg","QD","ORAL",13,"WEEK 26",182,"TREATMENT","2014-08-16","2002","",183,null,null],[433,"CDISCPILOT01","CM","01-701-1130",54,"4","POTASSIUM","UNCODED","PROPHYLAXIS OR NON-THERAPEUTIC USE","UNCODED",1,"TABLET","QD","ORAL",13,"WEEK 26",182,"TREATMENT","2014-08-16","2002","",183,null,null],[434,"CDISCPILOT01","CM","01-701-1130",55,"2","EUCERIN CREME","UNCODED","","UNCODED",1,"TABLET","TID","TOPICAL",13,"WEEK 26",182,"TREATMENT","2014-08-16","2013-09","",183,null,null],[435,"CDISCPILOT01","CM","01-701-1133",1,"1","MULTIVITAMIN","UNCODED","PROPHYLAXIS OR NON-THERAPEUTIC USE","UNCODED",1,"TABLET","QD","ORAL",1,"SCREENING 1",-7,"SCREENING","2012-10-23","2006","",-5,null,null],[436,"CDISCPILOT01","CM","01-701-1133",2,"1","MULTIVITAMIN","UNCODED","PROPHYLAXIS OR NON-THERAPEUTIC USE","UNCODED",1,"TABLET","QD","ORAL",2,"SCREENING 2",-1,"SCREENING","2012-10-26","2006","",-2,null,null],[437,"CDISCPILOT01","CM","01-701-1133",3,"1","MULTIVITAMIN","UNCODED","PROPHYLAXIS OR NON-THERAPEUTIC USE","UNCODED",1,"TABLET","QD","ORAL",3,"BASELINE",1,"TREATMENT","2012-10-28","2006","",1,null,null],[438,"CDISCPILOT01","CM","01-701-1133",4,"1","MULTIVITAMIN","UNCODED","PROPHYLAXIS OR NON-THERAPEUTIC USE","UNCODED",1,"TABLET","QD","ORAL",4,"WEEK 2",14,"TREATMENT","2012-11-12","2006","",16,null,null],[439,"CDISCPILOT01","CM","01-701-1133",5,"1","MULTIVITAMIN","UNCODED","PROPHYLAXIS OR NON-THERAPEUTIC USE","UNCODED",1,"TABLET","QD","ORAL",5,"WEEK 4",28,"TREATMENT","2012-11-26","2006","",30,null,null],[440,"CDISCPILOT01","CM","01-701-1133",6,"1","MULTIVITAMIN","UNCODED","PROPHYLAXIS OR NON-THERAPEUTIC USE","UNCODED",1,"TABLET","QD","ORAL",6,"AMBUL ECG REMOVAL",30,"TREATMENT","2012-11-28","2006","",32,null,null],[441,"CDISCPILOT01","CM","01-701-1133",7,"1","MULTIVITAMIN","UNCODED","PROPHYLAXIS OR NON-THERAPEUTIC USE","UNCODED",1,"TABLET","QD","ORAL",7,"WEEK 6",42,"TREATMENT","2012-12-11","2006","",45,null,null],[442,"CDISCPILOT01","CM","01-701-1133",8,"1","MULTIVITAMIN","UNCODED","PROPHYLAXIS OR NON-THERAPEUTIC USE","UNCODED",1,"TABLET","QD","ORAL",8,"WEEK 8",56,"TREATMENT","2012-12-24","2006","",58,null,null],[443,"CDISCPILOT01","CM","01-701-1133",9,"1","MULTIVITAMIN","UNCODED","PROPHYLAXIS OR NON-THERAPEUTIC USE","UNCODED",1,"TABLET","QD","ORAL",9,"WEEK 12",84,"TREATMENT","2013-01-22","2006","",87,null,null],[444,"CDISCPILOT01","CM","01-701-1133",10,"1","MULTIVITAMIN","UNCODED","PROPHYLAXIS OR NON-THERAPEUTIC USE","UNCODED",1,"TABLET","QD","ORAL",10,"WEEK 16",112,"TREATMENT","2013-02-18","2006","",114,null,null],[445,"CDISCPILOT01","CM","01-701-1133",11,"2","HYDROCORTISONE","HYDROCORTISONE","","SYSTEMIC HORMONAL PREPARATIONS, EXCL.",1,"TABLET","PRN","TOPICAL",10,"WEEK 16",112,"TREATMENT","2013-02-18","2013-01-23","",114,88,null],[446,"CDISCPILOT01","CM","01-701-1133",12,"1","MULTIVITAMIN","UNCODED","PROPHYLAXIS OR NON-THERAPEUTIC USE","UNCODED",1,"TABLET","QD","ORAL",11,"WEEK 20",140,"TREATMENT","2013-03-18","2006","",142,null,null],[447,"CDISCPILOT01","CM","01-701-1133",13,"2","HYDROCORTISONE","HYDROCORTISONE","","SYSTEMIC HORMONAL PREPARATIONS, EXCL.",1,"TABLET","PRN","TOPICAL",11,"WEEK 20",140,"TREATMENT","2013-03-18","2013-01-23","",142,88,null],[448,"CDISCPILOT01","CM","01-701-1133",14,"1","MULTIVITAMIN","UNCODED","PROPHYLAXIS OR NON-THERAPEUTIC USE","UNCODED",1,"TABLET","QD","ORAL",12,"WEEK 24",168,"TREATMENT","2013-04-18","2006","",173,null,null],[449,"CDISCPILOT01","CM","01-701-1133",15,"2","HYDROCORTISONE","HYDROCORTISONE","","SYSTEMIC HORMONAL PREPARATIONS, EXCL.",1,"TABLET","PRN","TOPICAL",12,"WEEK 24",168,"TREATMENT","2013-04-18","2013-01-23","",173,88,null],[450,"CDISCPILOT01","CM","01-701-1133",16,"1","MULTIVITAMIN","UNCODED","PROPHYLAXIS OR NON-THERAPEUTIC USE","UNCODED",1,"TABLET","QD","ORAL",13,"WEEK 26",182,"TREATMENT","2013-04-29","2006","",184,null,null],[451,"CDISCPILOT01","CM","01-701-1133",17,"2","HYDROCORTISONE","HYDROCORTISONE","","SYSTEMIC HORMONAL PREPARATIONS, EXCL.",1,"TABLET","PRN","TOPICAL",13,"WEEK 26",182,"TREATMENT","2013-04-29","2013-01-23","",184,88,null],[452,"CDISCPILOT01","CM","01-701-1146",1,"4","MOTRIN","UNCODED","","UNCODED",1,"TABLET","PRN","ORAL",1,"SCREENING 1",-7,"SCREENING","2013-05-07","1966","",-13,null,null],[453,"CDISCPILOT01","CM","01-701-1146",2,"6","PREMARIN","ESTROGENS CONJUGATED","PROPHYLAXIS OR NON-THERAPEUTIC USE","GENITO URINARY SYSTEM AND SEX HORMONES",0.625,"mg","QD","ORAL",1,"SCREENING 1",-7,"SCREENING","2013-05-07","1987","",-13,null,null],[454,"CDISCPILOT01","CM","01-701-1146",3,"7","PROVERA","UNCODED","PROPHYLAXIS OR NON-THERAPEUTIC USE","UNCODED",2.5,"mg","QD","ORAL",1,"SCREENING 1",-7,"SCREENING","2013-05-07","1987","",-13,null,null],[455,"CDISCPILOT01","CM","01-701-1146",4,"5","MULTIVITAMIN","UNCODED","PROPHYLAXIS OR NON-THERAPEUTIC USE","UNCODED",1,"TABLET","QD","ORAL",1,"SCREENING 1",-7,"SCREENING","2013-05-07","2006","",-13,null,null],[456,"CDISCPILOT01","CM","01-701-1146",5,"1","BECONASE","UNCODED","","UNCODED",2,"TABLET","PRN","NASAL",1,"SCREENING 1",-7,"SCREENING","2013-05-07","2008","",-13,null,null],[457,"CDISCPILOT01","CM","01-701-1146",6,"2","DOCUSATE","UNCODED","","UNCODED",2,"TABLET","QD","ORAL",1,"SCREENING 1",-7,"SCREENING","2013-05-07","2008","",-13,null,null],[458,"CDISCPILOT01","CM","01-701-1146",7,"3","MINERALS NOS","UNCODED","","UNCODED",15,"mg","PRN","ORAL",1,"SCREENING 1",-7,"SCREENING","2013-05-07","2012","",-13,null,null],[459,"CDISCPILOT01","CM","01-701-1146",8,"4","MOTRIN","UNCODED","","UNCODED",1,"TABLET","PRN","ORAL",2,"SCREENING 2",-1,"SCREENING","2013-05-18","1966","",-2,null,null],[460,"CDISCPILOT01","CM","01-701-1146",9,"6","PREMARIN","ESTROGENS CONJUGATED","PROPHYLAXIS OR NON-THERAPEUTIC USE","GENITO URINARY SYSTEM AND SEX HORMONES",0.625,"mg","QD","ORAL",2,"SCREENING 2",-1,"SCREENING","2013-05-18","1987","",-2,null,null],[461,"CDISCPILOT01","CM","01-701-1146",10,"7","PROVERA","UNCODED","PROPHYLAXIS OR NON-THERAPEUTIC USE","UNCODED",2.5,"mg","QD","ORAL",2,"SCREENING 2",-1,"SCREENING","2013-05-18","1987","",-2,null,null],[462,"CDISCPILOT01","CM","01-701-1146",11,"5","MULTIVITAMIN","UNCODED","PROPHYLAXIS OR NON-THERAPEUTIC USE","UNCODED",1,"TABLET","QD","ORAL",2,"SCREENING 2",-1,"SCREENING","2013-05-18","2006","",-2,null,null],[463,"CDISCPILOT01","CM","01-701-1146",12,"1","BECONASE","UNCODED","","UNCODED",2,"TABLET","PRN","NASAL",2,"SCREENING 2",-1,"SCREENING","2013-05-18","2008","",-2,null,null],[464,"CDISCPILOT01","CM","01-701-1146",13,"2","DOCUSATE","UNCODED","","UNCODED",2,"TABLET","QD","ORAL",2,"SCREENING 2",-1,"SCREENING","2013-05-18","2008","",-2,null,null],[465,"CDISCPILOT01","CM","01-701-1146",14,"3","MINERALS NOS","UNCODED","","UNCODED",15,"mg","PRN","ORAL",2,"SCREENING 2",-1,"SCREENING","2013-05-18","2012","",-2,null,null],[466,"CDISCPILOT01","CM","01-701-1146",15,"4","MOTRIN","UNCODED","","UNCODED",1,"TABLET","PRN","ORAL",3,"BASELINE",1,"TREATMENT","2013-05-20","1966","",1,null,null],[467,"CDISCPILOT01","CM","01-701-1146",16,"6","PREMARIN","ESTROGENS CONJUGATED","PROPHYLAXIS OR NON-THERAPEUTIC USE","GENITO URINARY SYSTEM AND SEX HORMONES",0.625,"mg","QD","ORAL",3,"BASELINE",1,"TREATMENT","2013-05-20","1987","",1,null,null],[468,"CDISCPILOT01","CM","01-701-1146",17,"7","PROVERA","UNCODED","PROPHYLAXIS OR NON-THERAPEUTIC USE","UNCODED",2.5,"mg","QD","ORAL",3,"BASELINE",1,"TREATMENT","2013-05-20","1987","",1,null,null],[469,"CDISCPILOT01","CM","01-701-1146",18,"5","MULTIVITAMIN","UNCODED","PROPHYLAXIS OR NON-THERAPEUTIC USE","UNCODED",1,"TABLET","QD","ORAL",3,"BASELINE",1,"TREATMENT","2013-05-20","2006","",1,null,null],[470,"CDISCPILOT01","CM","01-701-1146",19,"1","BECONASE","UNCODED","","UNCODED",2,"TABLET","PRN","NASAL",3,"BASELINE",1,"TREATMENT","2013-05-20","2008","",1,null,null],[471,"CDISCPILOT01","CM","01-701-1146",20,"2","DOCUSATE","UNCODED","","UNCODED",2,"TABLET","QD","ORAL",3,"BASELINE",1,"TREATMENT","2013-05-20","2008","",1,null,null],[472,"CDISCPILOT01","CM","01-701-1146",21,"3","MINERALS NOS","UNCODED","","UNCODED",15,"mg","PRN","ORAL",3,"BASELINE",1,"TREATMENT","2013-05-20","2012","",1,null,null],[473,"CDISCPILOT01","CM","01-701-1146",22,"4","MOTRIN","UNCODED","","UNCODED",1,"TABLET","PRN","ORAL",4,"WEEK 2",14,"TREATMENT","2013-06-03","1966","",15,null,null],[474,"CDISCPILOT01","CM","01-701-1146",23,"6","PREMARIN","ESTROGENS CONJUGATED","PROPHYLAXIS OR NON-THERAPEUTIC USE","GENITO URINARY SYSTEM AND SEX HORMONES",0.625,"mg","QD","ORAL",4,"WEEK 2",14,"TREATMENT","2013-06-03","1987","",15,null,null],[475,"CDISCPILOT01","CM","01-701-1146",24,"7","PROVERA","UNCODED","PROPHYLAXIS OR NON-THERAPEUTIC USE","UNCODED",2.5,"mg","QD","ORAL",4,"WEEK 2",14,"TREATMENT","2013-06-03","1987","",15,null,null],[476,"CDISCPILOT01","CM","01-701-1146",25,"5","MULTIVITAMIN","UNCODED","PROPHYLAXIS OR NON-THERAPEUTIC USE","UNCODED",1,"TABLET","QD","ORAL",4,"WEEK 2",14,"TREATMENT","2013-06-03","2006","",15,null,null],[477,"CDISCPILOT01","CM","01-701-1146",26,"1","BECONASE","UNCODED","","UNCODED",2,"TABLET","PRN","NASAL",4,"WEEK 2",14,"TREATMENT","2013-06-03","2008","",15,null,null],[478,"CDISCPILOT01","CM","01-701-1146",27,"2","DOCUSATE","UNCODED","","UNCODED",2,"TABLET","QD","ORAL",4,"WEEK 2",14,"TREATMENT","2013-06-03","2008","",15,null,null],[479,"CDISCPILOT01","CM","01-701-1146",28,"3","MINERALS NOS","UNCODED","","UNCODED",15,"mg","PRN","ORAL",4,"WEEK 2",14,"TREATMENT","2013-06-03","2012","",15,null,null],[480,"CDISCPILOT01","CM","01-701-1146",29,"8","ADVIL","UNCODED","","UNCODED",2,"TABLET","TID","ORAL",4,"WEEK 2",14,"TREATMENT","2013-06-03","2013-05-21","2013-05-22",15,2,3],[481,"CDISCPILOT01","CM","01-701-1146",30,"4","MOTRIN","UNCODED","","UNCODED",1,"TABLET","PRN","ORAL",5,"WEEK 4",28,"TREATMENT","2013-06-16","1966","",28,null,null],[482,"CDISCPILOT01","CM","01-701-1146",31,"6","PREMARIN","ESTROGENS CONJUGATED","PROPHYLAXIS OR NON-THERAPEUTIC USE","GENITO URINARY SYSTEM AND SEX HORMONES",0.625,"mg","QD","ORAL",5,"WEEK 4",28,"TREATMENT","2013-06-16","1987","",28,null,null],[483,"CDISCPILOT01","CM","01-701-1146",32,"7","PROVERA","UNCODED","PROPHYLAXIS OR NON-THERAPEUTIC USE","UNCODED",2.5,"mg","QD","ORAL",5,"WEEK 4",28,"TREATMENT","2013-06-16","1987","",28,null,null],[484,"CDISCPILOT01","CM","01-701-1146",33,"5","MULTIVITAMIN","UNCODED","PROPHYLAXIS OR NON-THERAPEUTIC USE","UNCODED",1,"TABLET","QD","ORAL",5,"WEEK 4",28,"TREATMENT","2013-06-16","2006","",28,null,null],[485,"CDISCPILOT01","CM","01-701-1146",34,"1","BECONASE","UNCODED","","UNCODED",2,"TABLET","PRN","NASAL",5,"WEEK 4",28,"TREATMENT","2013-06-16","2008","",28,null,null],[486,"CDISCPILOT01","CM","01-701-1146",35,"2","DOCUSATE","UNCODED","","UNCODED",2,"TABLET","QD","ORAL",5,"WEEK 4",28,"TREATMENT","2013-06-16","2008","",28,null,null],[487,"CDISCPILOT01","CM","01-701-1146",36,"3","MINERALS NOS","UNCODED","","UNCODED",15,"mg","PRN","ORAL",5,"WEEK 4",28,"TREATMENT","2013-06-16","2012","",28,null,null],[488,"CDISCPILOT01","CM","01-701-1146",37,"9","HYDROCORTISONE, TOPICAL","UNCODED","","UNCODED",1,"TABLET","PRN","TOPICAL",5,"WEEK 4",28,"TREATMENT","2013-06-16","2013-06-12","",28,24,null],[489,"CDISCPILOT01","CM","01-701-1146",38,"4","MOTRIN","UNCODED","","UNCODED",1,"TABLET","PRN","ORAL",6,"AMBUL ECG REMOVAL",30,"TREATMENT","2013-06-18","1966","",30,null,null],[490,"CDISCPILOT01","CM","01-701-1146",39,"6","PREMARIN","ESTROGENS CONJUGATED","PROPHYLAXIS OR NON-THERAPEUTIC USE","GENITO URINARY SYSTEM AND SEX HORMONES",0.625,"mg","QD","ORAL",6,"AMBUL ECG REMOVAL",30,"TREATMENT","2013-06-18","1987","",30,null,null],[491,"CDISCPILOT01","CM","01-701-1146",40,"7","PROVERA","UNCODED","PROPHYLAXIS OR NON-THERAPEUTIC USE","UNCODED",2.5,"mg","QD","ORAL",6,"AMBUL ECG REMOVAL",30,"TREATMENT","2013-06-18","1987","",30,null,null],[492,"CDISCPILOT01","CM","01-701-1146",41,"5","MULTIVITAMIN","UNCODED","PROPHYLAXIS OR NON-THERAPEUTIC USE","UNCODED",1,"TABLET","QD","ORAL",6,"AMBUL ECG REMOVAL",30,"TREATMENT","2013-06-18","2006","",30,null,null],[493,"CDISCPILOT01","CM","01-701-1146",42,"1","BECONASE","UNCODED","","UNCODED",2,"TABLET","PRN","NASAL",6,"AMBUL ECG REMOVAL",30,"TREATMENT","2013-06-18","2008","",30,null,null],[494,"CDISCPILOT01","CM","01-701-1146",43,"2","DOCUSATE","UNCODED","","UNCODED",2,"TABLET","QD","ORAL",6,"AMBUL ECG REMOVAL",30,"TREATMENT","2013-06-18","2008","",30,null,null],[495,"CDISCPILOT01","CM","01-701-1146",44,"3","MINERALS NOS","UNCODED","","UNCODED",15,"mg","PRN","ORAL",6,"AMBUL ECG REMOVAL",30,"TREATMENT","2013-06-18","2012","",30,null,null],[496,"CDISCPILOT01","CM","01-701-1146",45,"9","HYDROCORTISONE, TOPICAL","UNCODED","","UNCODED",1,"TABLET","PRN","TOPICAL",6,"AMBUL ECG REMOVAL",30,"TREATMENT","2013-06-18","2013-06-12","",30,24,null],[497,"CDISCPILOT01","CM","01-701-1146",46,"4","MOTRIN","UNCODED","","UNCODED",1,"TABLET","PRN","ORAL",7,"WEEK 6",42,"TREATMENT","2013-06-30","1966","",42,null,null],[498,"CDISCPILOT01","CM","01-701-1146",47,"6","PREMARIN","ESTROGENS CONJUGATED","PROPHYLAXIS OR NON-THERAPEUTIC USE","GENITO URINARY SYSTEM AND SEX HORMONES",0.625,"mg","QD","ORAL",7,"WEEK 6",42,"TREATMENT","2013-06-30","1987","",42,null,null],[499,"CDISCPILOT01","CM","01-701-1146",48,"7","PROVERA","UNCODED","PROPHYLAXIS OR NON-THERAPEUTIC USE","UNCODED",2.5,"mg","QD","ORAL",7,"WEEK 6",42,"TREATMENT","2013-06-30","1987","",42,null,null],[500,"CDISCPILOT01","CM","01-701-1146",49,"5","MULTIVITAMIN","UNCODED","PROPHYLAXIS OR NON-THERAPEUTIC USE","UNCODED",1,"TABLET","QD","ORAL",7,"WEEK 6",42,"TREATMENT","2013-06-30","2006","",42,null,null],[501,"CDISCPILOT01","CM","01-701-1146",50,"1","BECONASE","UNCODED","","UNCODED",2,"TABLET","PRN","NASAL",7,"WEEK 6",42,"TREATMENT","2013-06-30","2008","",42,null,null],[502,"CDISCPILOT01","CM","01-701-1146",51,"2","DOCUSATE","UNCODED","","UNCODED",2,"TABLET","QD","ORAL",7,"WEEK 6",42,"TREATMENT","2013-06-30","2008","",42,null,null],[503,"CDISCPILOT01","CM","01-701-1146",52,"3","MINERALS NOS","UNCODED","","UNCODED",15,"mg","PRN","ORAL",7,"WEEK 6",42,"TREATMENT","2013-06-30","2012","",42,null,null],[504,"CDISCPILOT01","CM","01-701-1146",53,"9","HYDROCORTISONE, TOPICAL","UNCODED","","UNCODED",1,"TABLET","PRN","TOPICAL",7,"WEEK 6",42,"TREATMENT","2013-06-30","2013-06-12","",42,24,null],[505,"CDISCPILOT01","CM","01-701-1146",54,"4","MOTRIN","UNCODED","","UNCODED",1,"TABLET","PRN","ORAL",101,"AE FOLLOW-UP",null,"SCREENING","2013-07-15","1966","",57,null,null],[506,"CDISCPILOT01","CM","01-701-1146",55,"6","PREMARIN","ESTROGENS CONJUGATED","PROPHYLAXIS OR NON-THERAPEUTIC USE","GENITO URINARY SYSTEM AND SEX HORMONES",0.625,"mg","QD","ORAL",101,"AE FOLLOW-UP",null,"SCREENING","2013-07-15","1987","",57,null,null],[507,"CDISCPILOT01","CM","01-701-1146",56,"7","PROVERA","UNCODED","PROPHYLAXIS OR NON-THERAPEUTIC USE","UNCODED",2.5,"mg","QD","ORAL",101,"AE FOLLOW-UP",null,"SCREENING","2013-07-15","1987","",57,null,null],[508,"CDISCPILOT01","CM","01-701-1146",57,"5","MULTIVITAMIN","UNCODED","PROPHYLAXIS OR NON-THERAPEUTIC USE","UNCODED",1,"TABLET","QD","ORAL",101,"AE FOLLOW-UP",null,"SCREENING","2013-07-15","2006","",57,null,null],[509,"CDISCPILOT01","CM","01-701-1146",58,"1","BECONASE","UNCODED","","UNCODED",2,"TABLET","PRN","NASAL",101,"AE FOLLOW-UP",null,"SCREENING","2013-07-15","2008","",57,null,null],[510,"CDISCPILOT01","CM","01-701-1146",59,"2","DOCUSATE","UNCODED","","UNCODED",2,"TABLET","QD","ORAL",101,"AE FOLLOW-UP",null,"SCREENING","2013-07-15","2008","",57,null,null],[511,"CDISCPILOT01","CM","01-701-1146",60,"3","MINERALS NOS","UNCODED","","UNCODED",15,"mg","PRN","ORAL",101,"AE FOLLOW-UP",null,"SCREENING","2013-07-15","2012","",57,null,null],[512,"CDISCPILOT01","CM","01-701-1146",61,"9","HYDROCORTISONE, TOPICAL","UNCODED","","UNCODED",1,"TABLET","PRN","TOPICAL",101,"AE FOLLOW-UP",null,"SCREENING","2013-07-15","2013-06-12","",57,24,null],[513,"CDISCPILOT01","CM","01-701-1148",1,"2","TYLENOL","UNCODED","","UNCODED",1000,"mg","PRN","ORAL",1,"SCREENING 1",-7,"SCREENING","2013-08-14","2006","",-9,null,null],[514,"CDISCPILOT01","CM","01-701-1148",2,"1","TUMS","UNCODED","","UNCODED",2,"TABLET","PRN","ORAL",1,"SCREENING 1",-7,"SCREENING","2013-08-14","2011","",-9,null,null],[515,"CDISCPILOT01","CM","01-701-1148",3,"2","TYLENOL","UNCODED","","UNCODED",1000,"mg","PRN","ORAL",2,"SCREENING 2",-1,"SCREENING","2013-08-21","2006","",-2,null,null],[516,"CDISCPILOT01","CM","01-701-1148",4,"1","TUMS","UNCODED","","UNCODED",2,"TABLET","PRN","ORAL",2,"SCREENING 2",-1,"SCREENING","2013-08-21","2011","",-2,null,null],[517,"CDISCPILOT01","CM","01-701-1148",5,"2","TYLENOL","UNCODED","","UNCODED",1000,"mg","PRN","ORAL",3,"BASELINE",1,"TREATMENT","2013-08-23","2006","",1,null,null],[518,"CDISCPILOT01","CM","01-701-1148",6,"1","TUMS","UNCODED","","UNCODED",2,"TABLET","PRN","ORAL",3,"BASELINE",1,"TREATMENT","2013-08-23","2011","",1,null,null],[519,"CDISCPILOT01","CM","01-701-1148",7,"2","TYLENOL","UNCODED","","UNCODED",1000,"mg","PRN","ORAL",4,"WEEK 2",14,"TREATMENT","2013-09-05","2006","",14,null,null],[520,"CDISCPILOT01","CM","01-701-1148",8,"1","TUMS","UNCODED","","UNCODED",2,"TABLET","PRN","ORAL",4,"WEEK 2",14,"TREATMENT","2013-09-05","2011","",14,null,null],[521,"CDISCPILOT01","CM","01-701-1148",9,"2","TYLENOL","UNCODED","","UNCODED",1000,"mg","PRN","ORAL",5,"WEEK 4",28,"TREATMENT","2013-09-19","2006","",28,null,null],[522,"CDISCPILOT01","CM","01-701-1148",10,"1","TUMS","UNCODED","","UNCODED",2,"TABLET","PRN","ORAL",5,"WEEK 4",28,"TREATMENT","2013-09-19","2011","",28,null,null],[523,"CDISCPILOT01","CM","01-701-1148",11,"2","TYLENOL","UNCODED","","UNCODED",1000,"mg","PRN","ORAL",6,"AMBUL ECG REMOVAL",30,"TREATMENT","2013-09-21","2006","",30,null,null],[524,"CDISCPILOT01","CM","01-701-1148",12,"1","TUMS","UNCODED","","UNCODED",2,"TABLET","PRN","ORAL",6,"AMBUL ECG REMOVAL",30,"TREATMENT","2013-09-21","2011","",30,null,null],[525,"CDISCPILOT01","CM","01-701-1148",13,"2","TYLENOL","UNCODED","","UNCODED",1000,"mg","PRN","ORAL",7,"WEEK 6",42,"TREATMENT","2013-10-03","2006","",42,null,null],[526,"CDISCPILOT01","CM","01-701-1148",14,"1","TUMS","UNCODED","","UNCODED",2,"TABLET","PRN","ORAL",7,"WEEK 6",42,"TREATMENT","2013-10-03","2011","",42,null,null],[527,"CDISCPILOT01","CM","01-701-1148",15,"2","TYLENOL","UNCODED","","UNCODED",1000,"mg","PRN","ORAL",8,"WEEK 8",56,"TREATMENT","2013-10-18","2006","",57,null,null],[528,"CDISCPILOT01","CM","01-701-1148",16,"1","TUMS","UNCODED","","UNCODED",2,"TABLET","PRN","ORAL",8,"WEEK 8",56,"TREATMENT","2013-10-18","2011","",57,null,null],[529,"CDISCPILOT01","CM","01-701-1148",17,"2","TYLENOL","UNCODED","","UNCODED",1000,"mg","PRN","ORAL",9,"WEEK 12",84,"TREATMENT","2013-11-17","2006","",87,null,null],[530,"CDISCPILOT01","CM","01-701-1148",18,"1","TUMS","UNCODED","","UNCODED",2,"TABLET","PRN","ORAL",9,"WEEK 12",84,"TREATMENT","2013-11-17","2011","",87,null,null],[531,"CDISCPILOT01","CM","01-701-1148",19,"3","SULFAMETHOXAZOLE","UNCODED","","UNCODED",1,"TABLET","BID","ORAL",9,"WEEK 12",84,"TREATMENT","2013-11-17","2013-10-28","2013-11-16",87,67,86],[532,"CDISCPILOT01","CM","01-701-1148",20,"2","TYLENOL","UNCODED","","UNCODED",1000,"mg","PRN","ORAL",10,"WEEK 16",112,"TREATMENT","2013-12-13","2006","",113,null,null],[533,"CDISCPILOT01","CM","01-701-1148",21,"1","TUMS","UNCODED","","UNCODED",2,"TABLET","PRN","ORAL",10,"WEEK 16",112,"TREATMENT","2013-12-13","2011","",113,null,null],[534,"CDISCPILOT01","CM","01-701-1148",22,"4","HYDROCORTISONE","HYDROCORTISONE","","SYSTEMIC HORMONAL PREPARATIONS, EXCL.",1,"TABLET","PRN","TOPICAL",10,"WEEK 16",112,"TREATMENT","2013-12-13","2013-11-18","",113,88,null],[535,"CDISCPILOT01","CM","01-701-1148",23,"2","TYLENOL","UNCODED","","UNCODED",1000,"mg","PRN","ORAL",11,"WEEK 20",140,"TREATMENT","2014-01-10","2006","",141,null,null],[536,"CDISCPILOT01","CM","01-701-1148",24,"1","TUMS","UNCODED","","UNCODED",2,"TABLET","PRN","ORAL",11,"WEEK 20",140,"TREATMENT","2014-01-10","2011","",141,null,null],[537,"CDISCPILOT01","CM","01-701-1148",25,"4","HYDROCORTISONE","HYDROCORTISONE","","SYSTEMIC HORMONAL PREPARATIONS, EXCL.",1,"TABLET","PRN","TOPICAL",11,"WEEK 20",140,"TREATMENT","2014-01-10","2013-11-18","",141,88,null],[538,"CDISCPILOT01","CM","01-701-1148",26,"5","HYDROCODONE W/APAP","UNCODED","","UNCODED",500,"mg","Q4H","ORAL",11,"WEEK 20",140,"TREATMENT","2014-01-10","2013-12-16","2013-12-17",141,116,117],[539,"CDISCPILOT01","CM","01-701-1148",27,"6","NAPROXEN","UNCODED","","UNCODED",375,"mg","BID","ORAL",11,"WEEK 20",140,"TREATMENT","2014-01-10","2013-12-16","2013-12-17",141,116,117],[540,"CDISCPILOT01","CM","01-701-1148",28,"2","TYLENOL","UNCODED","","UNCODED",1000,"mg","PRN","ORAL",12,"WEEK 24",168,"TREATMENT","2014-02-08","2006","",170,null,null],[541,"CDISCPILOT01","CM","01-701-1148",29,"1","TUMS","UNCODED","","UNCODED",2,"TABLET","PRN","ORAL",12,"WEEK 24",168,"TREATMENT","2014-02-08","2011","",170,null,null],[542,"CDISCPILOT01","CM","01-701-1148",30,"4","HYDROCORTISONE","HYDROCORTISONE","","SYSTEMIC HORMONAL PREPARATIONS, EXCL.",1,"TABLET","PRN","TOPICAL",12,"WEEK 24",168,"TREATMENT","2014-02-08","2013-11-18","",170,88,null],[543,"CDISCPILOT01","CM","01-701-1148",31,"7","CIMETIDINE","UNCODED","","UNCODED",400,"mg","BID","ORAL",12,"WEEK 24",168,"TREATMENT","2014-02-08","2014-01-25","2014-02-08",170,156,170],[544,"CDISCPILOT01","CM","01-701-1148",32,"2","TYLENOL","UNCODED","","UNCODED",1000,"mg","PRN","ORAL",13,"WEEK 26",182,"TREATMENT","2014-02-20","2006","",182,null,null],[545,"CDISCPILOT01","CM","01-701-1148",33,"1","TUMS","UNCODED","","UNCODED",2,"TABLET","PRN","ORAL",13,"WEEK 26",182,"TREATMENT","2014-02-20","2011","",182,null,null],[546,"CDISCPILOT01","CM","01-701-1148",34,"4","HYDROCORTISONE","HYDROCORTISONE","","SYSTEMIC HORMONAL PREPARATIONS, EXCL.",1,"TABLET","PRN","TOPICAL",13,"WEEK 26",182,"TREATMENT","2014-02-20","2013-11-18","",182,88,null],[547,"CDISCPILOT01","CM","01-701-1148",35,"7","CIMETIDINE","UNCODED","","UNCODED",400,"mg","BID","ORAL",13,"WEEK 26",182,"TREATMENT","2014-02-20","2014-01-25","2014-02-08",182,156,170],[548,"CDISCPILOT01","CM","01-701-1148",36,"8","FLUOROPLEX","UNCODED","","UNCODED",1,"TABLET","BID","TOPICAL",13,"WEEK 26",182,"TREATMENT","2014-02-20","2014-02-12","",182,174,null],[549,"CDISCPILOT01","CM","01-701-1153",1,"1","TYLENOL","UNCODED","","UNCODED",650,"mg","PRN","ORAL",1,"SCREENING 1",-7,"SCREENING","2013-09-06","2011","",-17,null,null],[550,"CDISCPILOT01","CM","01-701-1153",2,"1","TYLENOL","UNCODED","","UNCODED",650,"mg","PRN","ORAL",2,"SCREENING 2",-1,"SCREENING","2013-09-18","2011","",-5,null,null],[551,"CDISCPILOT01","CM","01-701-1153",3,"1","TYLENOL","UNCODED","","UNCODED",650,"mg","PRN","ORAL",3,"BASELINE",1,"TREATMENT","2013-09-23","2011","",1,null,null],[552,"CDISCPILOT01","CM","01-701-1153",4,"1","TYLENOL","UNCODED","","UNCODED",650,"mg","PRN","ORAL",4,"WEEK 2",14,"TREATMENT","2013-10-08","2011","",16,null,null],[553,"CDISCPILOT01","CM","01-701-1153",5,"1","TYLENOL","UNCODED","","UNCODED",650,"mg","PRN","ORAL",5,"WEEK 4",28,"TREATMENT","2013-10-19","2011","",27,null,null],[554,"CDISCPILOT01","CM","01-701-1153",6,"1","TYLENOL","UNCODED","","UNCODED",650,"mg","PRN","ORAL",6,"AMBUL ECG REMOVAL",30,"TREATMENT","2013-10-28","2011","",36,null,null],[555,"CDISCPILOT01","CM","01-701-1153",7,"1","TYLENOL","UNCODED","","UNCODED",650,"mg","PRN","ORAL",7,"WEEK 6",42,"TREATMENT","2013-11-04","2011","",43,null,null],[556,"CDISCPILOT01","CM","01-701-1153",8,"1","TYLENOL","UNCODED","","UNCODED",650,"mg","PRN","ORAL",8,"WEEK 8",56,"TREATMENT","2013-11-18","2011","",57,null,null],[557,"CDISCPILOT01","CM","01-701-1153",9,"1","TYLENOL","UNCODED","","UNCODED",650,"mg","PRN","ORAL",9,"WEEK 12",84,"TREATMENT","2013-12-16","2011","",85,null,null],[558,"CDISCPILOT01","CM","01-701-1153",10,"1","TYLENOL","UNCODED","","UNCODED",650,"mg","PRN","ORAL",10,"WEEK 16",112,"TREATMENT","2014-01-08","2011","",108,null,null],[559,"CDISCPILOT01","CM","01-701-1153",11,"1","TYLENOL","UNCODED","","UNCODED",650,"mg","PRN","ORAL",11,"WEEK 20",140,"TREATMENT","2014-02-11","2011","",142,null,null],[560,"CDISCPILOT01","CM","01-701-1153",12,"1","TYLENOL","UNCODED","","UNCODED",650,"mg","PRN","ORAL",12,"WEEK 24",168,"TREATMENT","2014-03-11","2011","",170,null,null],[561,"CDISCPILOT01","CM","01-701-1153",13,"1","TYLENOL","UNCODED","","UNCODED",650,"mg","PRN","ORAL",13,"WEEK 26",182,"TREATMENT","2014-04-01","2011","",191,null,null],[562,"CDISCPILOT01","CM","01-701-1180",1,"1","CENTRUM","UNCODED","PROPHYLAXIS OR NON-THERAPEUTIC USE","UNCODED",1,"TABLET","QD","ORAL",1,"SCREENING 1",-7,"SCREENING","2013-01-28","2006","",-15,null,null],[563,"CDISCPILOT01","CM","01-701-1180",2,"1","CENTRUM","UNCODED","PROPHYLAXIS OR NON-THERAPEUTIC USE","UNCODED",1,"TABLET","QD","ORAL",2,"SCREENING 2",-1,"SCREENING","2013-02-10","2006","",-2,null,null],[564,"CDISCPILOT01","CM","01-701-1180",3,"1","CENTRUM","UNCODED","PROPHYLAXIS OR NON-THERAPEUTIC USE","UNCODED",1,"TABLET","QD","ORAL",3,"BASELINE",1,"TREATMENT","2013-02-12","2006","",1,null,null],[565,"CDISCPILOT01","CM","01-701-1180",4,"1","CENTRUM","UNCODED","PROPHYLAXIS OR NON-THERAPEUTIC USE","UNCODED",1,"TABLET","QD","ORAL",4,"WEEK 2",14,"TREATMENT","2013-02-25","2006","",14,null,null],[566,"CDISCPILOT01","CM","01-701-1180",5,"1","CENTRUM","UNCODED","PROPHYLAXIS OR NON-THERAPEUTIC USE","UNCODED",1,"TABLET","QD","ORAL",5,"WEEK 4",28,"TREATMENT","2013-03-11","2006","",28,null,null],[567,"CDISCPILOT01","CM","01-701-1180",6,"2","ASPIRIN","ACETYLSALICYLIC ACID","","NERVOUS SYSTEM",2,"TABLET","QD","ORAL",5,"WEEK 4",28,"TREATMENT","2013-03-11","2013-03-03","2013-03-09",28,20,26],[568,"CDISCPILOT01","CM","01-701-1180",7,"3","SUDAFED","UNCODED","","UNCODED",2,"TABLET","QD","ORAL",5,"WEEK 4",28,"TREATMENT","2013-03-11","2013-03-06","2013-03-07",28,23,24],[569,"CDISCPILOT01","CM","01-701-1180",8,"1","CENTRUM","UNCODED","PROPHYLAXIS OR NON-THERAPEUTIC USE","UNCODED",1,"TABLET","QD","ORAL",6,"AMBUL ECG REMOVAL",30,"TREATMENT","2013-03-13","2006","",30,null,null],[570,"CDISCPILOT01","CM","01-701-1180",9,"1","CENTRUM","UNCODED","PROPHYLAXIS OR NON-THERAPEUTIC USE","UNCODED",1,"TABLET","QD","ORAL",7,"WEEK 6",42,"TREATMENT","2013-03-23","2006","",40,null,null],[571,"CDISCPILOT01","CM","01-701-1180",10,"4","ALOES","UNCODED","PROPHYLAXIS OR NON-THERAPEUTIC USE","UNCODED",1,"TABLET","QD","TOPICAL",7,"WEEK 6",42,"TREATMENT","2013-03-23","2013-03-19","2013-03-19",40,36,36],[572,"CDISCPILOT01","CM","01-701-1180",11,"5","WESTCORT","UNCODED","PROPHYLAXIS OR NON-THERAPEUTIC USE","UNCODED",1,"TABLET","BID","TOPICAL",7,"WEEK 6",42,"TREATMENT","2013-03-23","2013-03-19","2013-03-21",40,36,38],[573,"CDISCPILOT01","CM","01-701-1180",12,"1","CENTRUM","UNCODED","PROPHYLAXIS OR NON-THERAPEUTIC USE","UNCODED",1,"TABLET","QD","ORAL",101,"AE FOLLOW-UP",null,"SCREENING","2013-04-07","2006","",55,null,null],[574,"CDISCPILOT01","CM","01-701-1180",13,"10","NEOSPORIN /USA/","UNCODED","","UNCODED",1,"TABLET","PRN","TOPICAL",101,"AE FOLLOW-UP",null,"SCREENING","2013-04-07","2013-03-24","2013-03-24",55,41,41],[575,"CDISCPILOT01","CM","01-701-1180",14,"7","HISMANAL","UNCODED","","UNCODED",10,"mg","QD","ORAL",101,"AE FOLLOW-UP",null,"SCREENING","2013-04-07","2013-03-25","",55,42,null],[576,"CDISCPILOT01","CM","01-701-1180",15,"6","DHEA","UNCODED","PROPHYLAXIS OR NON-THERAPEUTIC USE","UNCODED",25,"mg","QD","ORAL",101,"AE FOLLOW-UP",null,"SCREENING","2013-04-07","2013-03-27","2013-03-30",55,44,47],[577,"CDISCPILOT01","CM","01-701-1180",16,"9","MELATONIN","UNCODED","","UNCODED",2,"TABLET","QD","ORAL",101,"AE FOLLOW-UP",null,"SCREENING","2013-04-07","2013-03-27","2013-03-30",55,44,47],[578,"CDISCPILOT01","CM","01-701-1180",17,"8","MEDROL DOSEPAK","UNCODED","","UNCODED",4,"mg","PRN","ORAL",101,"AE FOLLOW-UP",null,"SCREENING","2013-04-07","2013-03-30","",55,47,null],[579,"CDISCPILOT01","CM","01-701-1181",1,"1","CALCIUM MAGNESIUM","UNCODED","PROPHYLAXIS OR NON-THERAPEUTIC USE","UNCODED",1,"TABLET","QD","ORAL",1,"SCREENING 1",-7,"SCREENING","2013-11-26","1985","",-9,null,null],[580,"CDISCPILOT01","CM","01-701-1181",2,"2","POTASSIUM","UNCODED","PROPHYLAXIS OR NON-THERAPEUTIC USE","UNCODED",1,"TABLET","QD","ORAL",1,"SCREENING 1",-7,"SCREENING","2013-11-26","1985","",-9,null,null],[581,"CDISCPILOT01","CM","01-701-1181",3,"4","VITAMIN C","UNCODED","PROPHYLAXIS OR NON-THERAPEUTIC USE","UNCODED",1,"TABLET","QD","ORAL",1,"SCREENING 1",-7,"SCREENING","2013-11-26","1985","",-9,null,null],[582,"CDISCPILOT01","CM","01-701-1181",4,"3","TYLENOL","UNCODED","","UNCODED",500,"mg","PRN","ORAL",1,"SCREENING 1",-7,"SCREENING","2013-11-26","2005","",-9,null,null],[583,"CDISCPILOT01","CM","01-701-1181",5,"5","VITAMIN E","UNCODED","PROPHYLAXIS OR NON-THERAPEUTIC USE","UNCODED",1,"TABLET","QD","ORAL",1,"SCREENING 1",-7,"SCREENING","2013-11-26","2012-06-04","",-9,-549,null],[584,"CDISCPILOT01","CM","01-701-1181",6,"1","CALCIUM MAGNESIUM","UNCODED","PROPHYLAXIS OR NON-THERAPEUTIC USE","UNCODED",1,"TABLET","QD","ORAL",2,"SCREENING 2",-1,"SCREENING","2013-12-03","1985","",-2,null,null],[585,"CDISCPILOT01","CM","01-701-1181",7,"2","POTASSIUM","UNCODED","PROPHYLAXIS OR NON-THERAPEUTIC USE","UNCODED",1,"TABLET","QD","ORAL",2,"SCREENING 2",-1,"SCREENING","2013-12-03","1985","",-2,null,null],[586,"CDISCPILOT01","CM","01-701-1181",8,"4","VITAMIN C","UNCODED","PROPHYLAXIS OR NON-THERAPEUTIC USE","UNCODED",1,"TABLET","QD","ORAL",2,"SCREENING 2",-1,"SCREENING","2013-12-03","1985","",-2,null,null],[587,"CDISCPILOT01","CM","01-701-1181",9,"3","TYLENOL","UNCODED","","UNCODED",500,"mg","PRN","ORAL",2,"SCREENING 2",-1,"SCREENING","2013-12-03","2005","",-2,null,null],[588,"CDISCPILOT01","CM","01-701-1181",10,"5","VITAMIN E","UNCODED","PROPHYLAXIS OR NON-THERAPEUTIC USE","UNCODED",1,"TABLET","QD","ORAL",2,"SCREENING 2",-1,"SCREENING","2013-12-03","2012-06-04","",-2,-549,null],[589,"CDISCPILOT01","CM","01-701-1181",11,"1","CALCIUM MAGNESIUM","UNCODED","PROPHYLAXIS OR NON-THERAPEUTIC USE","UNCODED",1,"TABLET","QD","ORAL",3,"BASELINE",1,"TREATMENT","2013-12-05","1985","",1,null,null],[590,"CDISCPILOT01","CM","01-701-1181",12,"2","POTASSIUM","UNCODED","PROPHYLAXIS OR NON-THERAPEUTIC USE","UNCODED",1,"TABLET","QD","ORAL",3,"BASELINE",1,"TREATMENT","2013-12-05","1985","",1,null,null],[591,"CDISCPILOT01","CM","01-701-1181",13,"4","VITAMIN C","UNCODED","PROPHYLAXIS OR NON-THERAPEUTIC USE","UNCODED",1,"TABLET","QD","ORAL",3,"BASELINE",1,"TREATMENT","2013-12-05","1985","",1,null,null],[592,"CDISCPILOT01","CM","01-701-1181",14,"3","TYLENOL","UNCODED","","UNCODED",500,"mg","PRN","ORAL",3,"BASELINE",1,"TREATMENT","2013-12-05","2005","",1,null,null],[593,"CDISCPILOT01","CM","01-701-1181",15,"5","VITAMIN E","UNCODED","PROPHYLAXIS OR NON-THERAPEUTIC USE","UNCODED",1,"TABLET","QD","ORAL",3,"BASELINE",1,"TREATMENT","2013-12-05","2012-06-04","",1,-549,null],[594,"CDISCPILOT01","CM","01-701-1181",16,"1","CALCIUM MAGNESIUM","UNCODED","PROPHYLAXIS OR NON-THERAPEUTIC USE","UNCODED",1,"TABLET","QD","ORAL",4,"WEEK 2",14,"TREATMENT","2013-12-12","1985","",8,null,null],[595,"CDISCPILOT01","CM","01-701-1181",17,"2","POTASSIUM","UNCODED","PROPHYLAXIS OR NON-THERAPEUTIC USE","UNCODED",1,"TABLET","QD","ORAL",4,"WEEK 2",14,"TREATMENT","2013-12-12","1985","",8,null,null],[596,"CDISCPILOT01","CM","01-701-1181",18,"4","VITAMIN C","UNCODED","PROPHYLAXIS OR NON-THERAPEUTIC USE","UNCODED",1,"TABLET","QD","ORAL",4,"WEEK 2",14,"TREATMENT","2013-12-12","1985","",8,null,null],[597,"CDISCPILOT01","CM","01-701-1181",19,"3","TYLENOL","UNCODED","","UNCODED",500,"mg","PRN","ORAL",4,"WEEK 2",14,"TREATMENT","2013-12-12","2005","",8,null,null],[598,"CDISCPILOT01","CM","01-701-1181",20,"5","VITAMIN E","UNCODED","PROPHYLAXIS OR NON-THERAPEUTIC USE","UNCODED",1,"TABLET","QD","ORAL",4,"WEEK 2",14,"TREATMENT","2013-12-12","2012-06-04","",8,-549,null],[599,"CDISCPILOT01","CM","01-701-1181",21,"6","MOTRIN","UNCODED","","UNCODED",200,"mg","PRN","ORAL",4,"WEEK 2",14,"TREATMENT","2013-12-12","2013-12-09","2013-12-09",8,5,5],[600,"CDISCPILOT01","CM","01-701-1181",22,"1","CALCIUM MAGNESIUM","UNCODED","PROPHYLAXIS OR NON-THERAPEUTIC USE","UNCODED",1,"TABLET","QD","ORAL",101,"AE FOLLOW-UP",null,"SCREENING","2013-12-20","1985","",16,null,null],[601,"CDISCPILOT01","CM","01-701-1181",23,"2","POTASSIUM","UNCODED","PROPHYLAXIS OR NON-THERAPEUTIC USE","UNCODED",1,"TABLET","QD","ORAL",101,"AE FOLLOW-UP",null,"SCREENING","2013-12-20","1985","",16,null,null],[602,"CDISCPILOT01","CM","01-701-1181",24,"4","VITAMIN C","UNCODED","PROPHYLAXIS OR NON-THERAPEUTIC USE","UNCODED",1,"TABLET","QD","ORAL",101,"AE FOLLOW-UP",null,"SCREENING","2013-12-20","1985","",16,null,null],[603,"CDISCPILOT01","CM","01-701-1181",25,"3","TYLENOL","UNCODED","","UNCODED",500,"mg","PRN","ORAL",101,"AE FOLLOW-UP",null,"SCREENING","2013-12-20","2005","",16,null,null],[604,"CDISCPILOT01","CM","01-701-1181",26,"5","VITAMIN E","UNCODED","PROPHYLAXIS OR NON-THERAPEUTIC USE","UNCODED",1,"TABLET","QD","ORAL",101,"AE FOLLOW-UP",null,"SCREENING","2013-12-20","2012-06-04","",16,-549,null],[605,"CDISCPILOT01","CM","01-701-1181",27,"1","CALCIUM MAGNESIUM","UNCODED","PROPHYLAXIS OR NON-THERAPEUTIC USE","UNCODED",1,"TABLET","QD","ORAL",201,"RETRIEVAL",168,"TREATMENT","2014-05-23","1985","",170,null,null],[606,"CDISCPILOT01","CM","01-701-1181",28,"2","POTASSIUM","UNCODED","PROPHYLAXIS OR NON-THERAPEUTIC USE","UNCODED",1,"TABLET","QD","ORAL",201,"RETRIEVAL",168,"TREATMENT","2014-05-23","1985","",170,null,null],[607,"CDISCPILOT01","CM","01-701-1181",29,"4","VITAMIN C","UNCODED","PROPHYLAXIS OR NON-THERAPEUTIC USE","UNCODED",1,"TABLET","QD","ORAL",201,"RETRIEVAL",168,"TREATMENT","2014-05-23","1985","",170,null,null],[608,"CDISCPILOT01","CM","01-701-1181",30,"3","TYLENOL","UNCODED","","UNCODED",500,"mg","PRN","ORAL",201,"RETRIEVAL",168,"TREATMENT","2014-05-23","2005","",170,null,null],[609,"CDISCPILOT01","CM","01-701-1181",31,"5","VITAMIN E","UNCODED","PROPHYLAXIS OR NON-THERAPEUTIC USE","UNCODED",1,"TABLET","QD","ORAL",201,"RETRIEVAL",168,"TREATMENT","2014-05-23","2012-06-04","",170,-549,null],[610,"CDISCPILOT01","CM","01-701-1188",1,"2","MULTIVITAMINS","UNCODED","PROPHYLAXIS OR NON-THERAPEUTIC USE","UNCODED",1,"TABLET","QD","ORAL",1,"SCREENING 1",-7,"SCREENING","2013-02-03","2002","",-12,null,null],[611,"CDISCPILOT01","CM","01-701-1188",2,"1","ASPIRIN","ACETYLSALICYLIC ACID","PROPHYLAXIS OR NON-THERAPEUTIC USE","NERVOUS SYSTEM",1,"TABLET","QD","ORAL",1,"SCREENING 1",-7,"SCREENING","2013-02-03","2006","",-12,null,null],[612,"CDISCPILOT01","CM","01-701-1188",3,"2","MULTIVITAMINS","UNCODED","PROPHYLAXIS OR NON-THERAPEUTIC USE","UNCODED",1,"TABLET","QD","ORAL",2,"SCREENING 2",-1,"SCREENING","2013-02-10","2002","",-5,null,null],[613,"CDISCPILOT01","CM","01-701-1188",4,"1","ASPIRIN","ACETYLSALICYLIC ACID","PROPHYLAXIS OR NON-THERAPEUTIC USE","NERVOUS SYSTEM",1,"TABLET","QD","ORAL",2,"SCREENING 2",-1,"SCREENING","2013-02-10","2006","",-5,null,null],[614,"CDISCPILOT01","CM","01-701-1188",5,"2","MULTIVITAMINS","UNCODED","PROPHYLAXIS OR NON-THERAPEUTIC USE","UNCODED",1,"TABLET","QD","ORAL",3,"BASELINE",1,"TREATMENT","2013-02-15","2002","",1,null,null],[615,"CDISCPILOT01","CM","01-701-1188",6,"1","ASPIRIN","ACETYLSALICYLIC ACID","PROPHYLAXIS OR NON-THERAPEUTIC USE","NERVOUS SYSTEM",1,"TABLET","QD","ORAL",3,"BASELINE",1,"TREATMENT","2013-02-15","2006","",1,null,null],[616,"CDISCPILOT01","CM","01-701-1188",7,"2","MULTIVITAMINS","UNCODED","PROPHYLAXIS OR NON-THERAPEUTIC USE","UNCODED",1,"TABLET","QD","ORAL",4,"WEEK 2",14,"TREATMENT","2013-03-02","2002","",16,null,null],[617,"CDISCPILOT01","CM","01-701-1188",8,"1","ASPIRIN","ACETYLSALICYLIC ACID","PROPHYLAXIS OR NON-THERAPEUTIC USE","NERVOUS SYSTEM",1,"TABLET","QD","ORAL",4,"WEEK 2",14,"TREATMENT","2013-03-02","2006","",16,null,null],[618,"CDISCPILOT01","CM","01-701-1188",9,"2","MULTIVITAMINS","UNCODED","PROPHYLAXIS OR NON-THERAPEUTIC USE","UNCODED",1,"TABLET","QD","ORAL",5,"WEEK 4",28,"TREATMENT","2013-03-16","2002","",30,null,null],[619,"CDISCPILOT01","CM","01-701-1188",10,"1","ASPIRIN","ACETYLSALICYLIC ACID","PROPHYLAXIS OR NON-THERAPEUTIC USE","NERVOUS SYSTEM",1,"TABLET","QD","ORAL",5,"WEEK 4",28,"TREATMENT","2013-03-16","2006","",30,null,null],[620,"CDISCPILOT01","CM","01-701-1188",11,"2","MULTIVITAMINS","UNCODED","PROPHYLAXIS OR NON-THERAPEUTIC USE","UNCODED",1,"TABLET","QD","ORAL",6,"AMBUL ECG REMOVAL",30,"TREATMENT","2013-03-18","2002","",32,null,null],[621,"CDISCPILOT01","CM","01-701-1188",12,"1","ASPIRIN","ACETYLSALICYLIC ACID","PROPHYLAXIS OR NON-THERAPEUTIC USE","NERVOUS SYSTEM",1,"TABLET","QD","ORAL",6,"AMBUL ECG REMOVAL",30,"TREATMENT","2013-03-18","2006","",32,null,null],[622,"CDISCPILOT01","CM","01-701-1188",13,"2","MULTIVITAMINS","UNCODED","PROPHYLAXIS OR NON-THERAPEUTIC USE","UNCODED",1,"TABLET","QD","ORAL",7,"WEEK 6",42,"TREATMENT","2013-03-25","2002","",39,null,null],[623,"CDISCPILOT01","CM","01-701-1188",14,"1","ASPIRIN","ACETYLSALICYLIC ACID","PROPHYLAXIS OR NON-THERAPEUTIC USE","NERVOUS SYSTEM",1,"TABLET","QD","ORAL",7,"WEEK 6",42,"TREATMENT","2013-03-25","2006","",39,null,null],[624,"CDISCPILOT01","CM","01-701-1188",15,"2","MULTIVITAMINS","UNCODED","PROPHYLAXIS OR NON-THERAPEUTIC USE","UNCODED",1,"TABLET","QD","ORAL",101,"AE FOLLOW-UP",null,"SCREENING","2013-06-01","2002","",107,null,null],[625,"CDISCPILOT01","CM","01-701-1188",16,"1","ASPIRIN","ACETYLSALICYLIC ACID","PROPHYLAXIS OR NON-THERAPEUTIC USE","NERVOUS SYSTEM",1,"TABLET","QD","ORAL",101,"AE FOLLOW-UP",null,"SCREENING","2013-06-01","2006","",107,null,null],[626,"CDISCPILOT01","CM","01-701-1188",17,"2","MULTIVITAMINS","UNCODED","PROPHYLAXIS OR NON-THERAPEUTIC USE","UNCODED",1,"TABLET","QD","ORAL",201,"RETRIEVAL",168,"TREATMENT","2013-08-04","2002","",171,null,null],[627,"CDISCPILOT01","CM","01-701-1188",18,"1","ASPIRIN","ACETYLSALICYLIC ACID","PROPHYLAXIS OR NON-THERAPEUTIC USE","NERVOUS SYSTEM",1,"TABLET","QD","ORAL",201,"RETRIEVAL",168,"TREATMENT","2013-08-04","2006","",171,null,null],[628,"CDISCPILOT01","CM","01-701-1192",1,"1","EXCEDRIN","UNCODED","","UNCODED",2,"TABLET","PRN","ORAL",1,"SCREENING 1",-7,"SCREENING","2012-07-08","1999","",-14,null,null],[629,"CDISCPILOT01","CM","01-701-1192",2,"2","MULTIVITAMINS","UNCODED","PROPHYLAXIS OR NON-THERAPEUTIC USE","UNCODED",2,"TABLET","TID","ORAL",1,"SCREENING 1",-7,"SCREENING","2012-07-08","2011-05-19","",-14,-430,null],[630,"CDISCPILOT01","CM","01-701-1192",3,"1","EXCEDRIN","UNCODED","","UNCODED",2,"TABLET","PRN","ORAL",2,"SCREENING 2",-1,"SCREENING","2012-07-20","1999","",-2,null,null],[631,"CDISCPILOT01","CM","01-701-1192",4,"2","MULTIVITAMINS","UNCODED","PROPHYLAXIS OR NON-THERAPEUTIC USE","UNCODED",2,"TABLET","TID","ORAL",2,"SCREENING 2",-1,"SCREENING","2012-07-20","2011-05-19","",-2,-430,null],[632,"CDISCPILOT01","CM","01-701-1192",5,"1","EXCEDRIN","UNCODED","","UNCODED",2,"TABLET","PRN","ORAL",3,"BASELINE",1,"TREATMENT","2012-07-22","1999","",1,null,null],[633,"CDISCPILOT01","CM","01-701-1192",6,"2","MULTIVITAMINS","UNCODED","PROPHYLAXIS OR NON-THERAPEUTIC USE","UNCODED",2,"TABLET","TID","ORAL",3,"BASELINE",1,"TREATMENT","2012-07-22","2011-05-19","",1,-430,null],[634,"CDISCPILOT01","CM","01-701-1192",7,"1","EXCEDRIN","UNCODED","","UNCODED",2,"TABLET","PRN","ORAL",4,"WEEK 2",14,"TREATMENT","2012-08-07","1999","",17,null,null],[635,"CDISCPILOT01","CM","01-701-1192",8,"2","MULTIVITAMINS","UNCODED","PROPHYLAXIS OR NON-THERAPEUTIC USE","UNCODED",2,"TABLET","TID","ORAL",4,"WEEK 2",14,"TREATMENT","2012-08-07","2011-05-19","",17,-430,null],[636,"CDISCPILOT01","CM","01-701-1192",9,"1","EXCEDRIN","UNCODED","","UNCODED",2,"TABLET","PRN","ORAL",5,"WEEK 4",28,"TREATMENT","2012-08-21","1999","",31,null,null],[637,"CDISCPILOT01","CM","01-701-1192",10,"2","MULTIVITAMINS","UNCODED","PROPHYLAXIS OR NON-THERAPEUTIC USE","UNCODED",2,"TABLET","TID","ORAL",5,"WEEK 4",28,"TREATMENT","2012-08-21","2011-05-19","",31,-430,null],[638,"CDISCPILOT01","CM","01-701-1192",11,"1","EXCEDRIN","UNCODED","","UNCODED",2,"TABLET","PRN","ORAL",6,"AMBUL ECG REMOVAL",30,"TREATMENT","2012-08-23","1999","",33,null,null],[639,"CDISCPILOT01","CM","01-701-1192",12,"2","MULTIVITAMINS","UNCODED","PROPHYLAXIS OR NON-THERAPEUTIC USE","UNCODED",2,"TABLET","TID","ORAL",6,"AMBUL ECG REMOVAL",30,"TREATMENT","2012-08-23","2011-05-19","",33,-430,null],[640,"CDISCPILOT01","CM","01-701-1192",13,"1","EXCEDRIN","UNCODED","","UNCODED",2,"TABLET","PRN","ORAL",7,"WEEK 6",42,"TREATMENT","2012-09-04","1999","",45,null,null],[641,"CDISCPILOT01","CM","01-701-1192",14,"2","MULTIVITAMINS","UNCODED","PROPHYLAXIS OR NON-THERAPEUTIC USE","UNCODED",2,"TABLET","TID","ORAL",7,"WEEK 6",42,"TREATMENT","2012-09-04","2011-05-19","",45,-430,null],[642,"CDISCPILOT01","CM","01-701-1192",15,"1","EXCEDRIN","UNCODED","","UNCODED",2,"TABLET","PRN","ORAL",8,"WEEK 8",56,"TREATMENT","2012-09-23","1999","",64,null,null],[643,"CDISCPILOT01","CM","01-701-1192",16,"2","MULTIVITAMINS","UNCODED","PROPHYLAXIS OR NON-THERAPEUTIC USE","UNCODED",2,"TABLET","TID","ORAL",8,"WEEK 8",56,"TREATMENT","2012-09-23","2011-05-19","",64,-430,null],[644,"CDISCPILOT01","CM","01-701-1192",17,"4","BIAXIN","UNCODED","","UNCODED",500,"mg","BID","ORAL",8,"WEEK 8",56,"TREATMENT","2012-09-23","2012-09-07","2012-09-23",64,48,64],[645,"CDISCPILOT01","CM","01-701-1192",18,"3","ROCEPHIN","UNCODED","","UNCODED",null,"","","",8,"WEEK 8",56,"TREATMENT","2012-09-23","2012-09-07","2012-09-08",64,48,49],[646,"CDISCPILOT01","CM","01-701-1192",19,"6","ROBITUSSIN-DM","UNCODED","","UNCODED",1,"TABLET","PRN","ORAL",8,"WEEK 8",56,"TREATMENT","2012-09-23","2012-09-08","2012-10-06",64,49,77],[647,"CDISCPILOT01","CM","01-701-1192",20,"1","EXCEDRIN","UNCODED","","UNCODED",2,"TABLET","PRN","ORAL",9,"WEEK 12",84,"TREATMENT","2012-10-14","1999","",85,null,null],[648,"CDISCPILOT01","CM","01-701-1192",21,"2","MULTIVITAMINS","UNCODED","PROPHYLAXIS OR NON-THERAPEUTIC USE","UNCODED",2,"TABLET","TID","ORAL",9,"WEEK 12",84,"TREATMENT","2012-10-14","2011-05-19","",85,-430,null],[649,"CDISCPILOT01","CM","01-701-1192",22,"4","BIAXIN","UNCODED","","UNCODED",500,"mg","BID","ORAL",9,"WEEK 12",84,"TREATMENT","2012-10-14","2012-09-07","2012-09-23",85,48,64],[650,"CDISCPILOT01","CM","01-701-1192",23,"6","ROBITUSSIN-DM","UNCODED","","UNCODED",1,"TABLET","PRN","ORAL",9,"WEEK 12",84,"TREATMENT","2012-10-14","2012-09-08","2012-10-06",85,49,77],[651,"CDISCPILOT01","CM","01-701-1192",24,"5","PROVENTIL","SALBUTAMOL SULFATE","","RESPIRATORY SYSTEM",4,"mg","BID","ORAL",9,"WEEK 12",84,"TREATMENT","2012-10-14","2012-09-24","2012-10-06",85,65,77],[652,"CDISCPILOT01","CM","01-701-1192",25,"1","EXCEDRIN","UNCODED","","UNCODED",2,"TABLET","PRN","ORAL",10,"WEEK 16",112,"TREATMENT","2012-11-15","1999","",117,null,null],[653,"CDISCPILOT01","CM","01-701-1192",26,"2","MULTIVITAMINS","UNCODED","PROPHYLAXIS OR NON-THERAPEUTIC USE","UNCODED",2,"TABLET","TID","ORAL",10,"WEEK 16",112,"TREATMENT","2012-11-15","2011-05-19","",117,-430,null],[654,"CDISCPILOT01","CM","01-701-1192",27,"1","EXCEDRIN","UNCODED","","UNCODED",2,"TABLET","PRN","ORAL",11,"WEEK 20",140,"TREATMENT","2012-12-13","1999","",145,null,null],[655,"CDISCPILOT01","CM","01-701-1192",28,"2","MULTIVITAMINS","UNCODED","PROPHYLAXIS OR NON-THERAPEUTIC USE","UNCODED",2,"TABLET","TID","ORAL",11,"WEEK 20",140,"TREATMENT","2012-12-13","2011-05-19","",145,-430,null],[656,"CDISCPILOT01","CM","01-701-1192",29,"7","HYDROCORTISONE","HYDROCORTISONE","","SYSTEMIC HORMONAL PREPARATIONS, EXCL.",1,"TABLET","PRN","TOPICAL",11,"WEEK 20",140,"TREATMENT","2012-12-13","2012-12-08","",145,140,null],[657,"CDISCPILOT01","CM","01-701-1192",30,"8","NEOSPORIN /USA/","UNCODED","","UNCODED",1,"TABLET","PRN","TOPICAL",11,"WEEK 20",140,"TREATMENT","2012-12-13","2012-12-09","",145,141,null],[658,"CDISCPILOT01","CM","01-701-1192",31,"1","EXCEDRIN","UNCODED","","UNCODED",2,"TABLET","PRN","ORAL",12,"WEEK 24",168,"TREATMENT","2013-01-11","1999","",174,null,null],[659,"CDISCPILOT01","CM","01-701-1192",32,"2","MULTIVITAMINS","UNCODED","PROPHYLAXIS OR NON-THERAPEUTIC USE","UNCODED",2,"TABLET","TID","ORAL",12,"WEEK 24",168,"TREATMENT","2013-01-11","2011-05-19","",174,-430,null],[660,"CDISCPILOT01","CM","01-701-1192",33,"7","HYDROCORTISONE","HYDROCORTISONE","","SYSTEMIC HORMONAL PREPARATIONS, EXCL.",1,"TABLET","PRN","TOPICAL",12,"WEEK 24",168,"TREATMENT","2013-01-11","2012-12-08","",174,140,null],[661,"CDISCPILOT01","CM","01-701-1192",34,"8","NEOSPORIN /USA/","UNCODED","","UNCODED",1,"TABLET","PRN","TOPICAL",12,"WEEK 24",168,"TREATMENT","2013-01-11","2012-12-09","",174,141,null],[662,"CDISCPILOT01","CM","01-701-1192",35,"1","EXCEDRIN","UNCODED","","UNCODED",2,"TABLET","PRN","ORAL",13,"WEEK 26",182,"TREATMENT","2013-01-20","1999","",183,null,null],[663,"CDISCPILOT01","CM","01-701-1192",36,"2","MULTIVITAMINS","UNCODED","PROPHYLAXIS OR NON-THERAPEUTIC USE","UNCODED",2,"TABLET","TID","ORAL",13,"WEEK 26",182,"TREATMENT","2013-01-20","2011-05-19","",183,-430,null],[664,"CDISCPILOT01","CM","01-701-1192",37,"7","HYDROCORTISONE","HYDROCORTISONE","","SYSTEMIC HORMONAL PREPARATIONS, EXCL.",1,"TABLET","PRN","TOPICAL",13,"WEEK 26",182,"TREATMENT","2013-01-20","2012-12-08","",183,140,null],[665,"CDISCPILOT01","CM","01-701-1192",38,"8","NEOSPORIN /USA/","UNCODED","","UNCODED",1,"TABLET","PRN","TOPICAL",13,"WEEK 26",182,"TREATMENT","2013-01-20","2012-12-09","",183,141,null],[666,"CDISCPILOT01","CM","01-701-1203",1,"1","TIMOPTIC","UNCODED","","UNCODED",1,"TABLET","BID","OPHTHALMIC",1,"SCREENING 1",-7,"SCREENING","2013-01-25","1986","",-8,null,null],[667,"CDISCPILOT01","CM","01-701-1203",2,"2","TRUSOPT","UNCODED","","UNCODED",1,"TABLET","BID","OPHTHALMIC",1,"SCREENING 1",-7,"SCREENING","2013-01-25","1986","",-8,null,null],[668,"CDISCPILOT01","CM","01-701-1203",3,"1","TIMOPTIC","UNCODED","","UNCODED",1,"TABLET","BID","OPHTHALMIC",2,"SCREENING 2",-1,"SCREENING","2013-02-01","1986","",-1,null,null],[669,"CDISCPILOT01","CM","01-701-1203",4,"2","TRUSOPT","UNCODED","","UNCODED",1,"TABLET","BID","OPHTHALMIC",2,"SCREENING 2",-1,"SCREENING","2013-02-01","1986","",-1,null,null],[670,"CDISCPILOT01","CM","01-701-1203",5,"3","ALPHAGAN","UNCODED","","UNCODED",1,"TABLET","BID","OPHTHALMIC",2,"SCREENING 2",-1,"SCREENING","2013-02-01","2013-01-31","",-1,-2,null],[671,"CDISCPILOT01","CM","01-701-1203",6,"4","PILOSTAT","UNCODED","","UNCODED",1,"TABLET","BID","OPHTHALMIC",2,"SCREENING 2",-1,"SCREENING","2013-02-01","2013-01-31","",-1,-2,null],[672,"CDISCPILOT01","CM","01-701-1203",7,"1","TIMOPTIC","UNCODED","","UNCODED",1,"TABLET","BID","OPHTHALMIC",3,"BASELINE",1,"TREATMENT","2013-02-02","1986","",1,null,null],[673,"CDISCPILOT01","CM","01-701-1203",8,"2","TRUSOPT","UNCODED","","UNCODED",1,"TABLET","BID","OPHTHALMIC",3,"BASELINE",1,"TREATMENT","2013-02-02","1986","",1,null,null],[674,"CDISCPILOT01","CM","01-701-1203",9,"3","ALPHAGAN","UNCODED","","UNCODED",1,"TABLET","BID","OPHTHALMIC",3,"BASELINE",1,"TREATMENT","2013-02-02","2013-01-31","",1,-2,null],[675,"CDISCPILOT01","CM","01-701-1203",10,"4","PILOSTAT","UNCODED","","UNCODED",1,"TABLET","BID","OPHTHALMIC",3,"BASELINE",1,"TREATMENT","2013-02-02","2013-01-31","",1,-2,null],[676,"CDISCPILOT01","CM","01-701-1203",11,"1","TIMOPTIC","UNCODED","","UNCODED",1,"TABLET","BID","OPHTHALMIC",4,"WEEK 2",14,"TREATMENT","2013-02-23","1986","",22,null,null],[677,"CDISCPILOT01","CM","01-701-1203",12,"2","TRUSOPT","UNCODED","","UNCODED",1,"TABLET","BID","OPHTHALMIC",4,"WEEK 2",14,"TREATMENT","2013-02-23","1986","",22,null,null],[678,"CDISCPILOT01","CM","01-701-1203",13,"3","ALPHAGAN","UNCODED","","UNCODED",1,"TABLET","BID","OPHTHALMIC",4,"WEEK 2",14,"TREATMENT","2013-02-23","2013-01-31","",22,-2,null],[679,"CDISCPILOT01","CM","01-701-1203",14,"4","PILOSTAT","UNCODED","","UNCODED",1,"TABLET","BID","OPHTHALMIC",4,"WEEK 2",14,"TREATMENT","2013-02-23","2013-01-31","",22,-2,null],[680,"CDISCPILOT01","CM","01-701-1203",15,"1","TIMOPTIC","UNCODED","","UNCODED",1,"TABLET","BID","OPHTHALMIC",5,"WEEK 4",28,"TREATMENT","2013-03-02","1986","",29,null,null],[681,"CDISCPILOT01","CM","01-701-1203",16,"2","TRUSOPT","UNCODED","","UNCODED",1,"TABLET","BID","OPHTHALMIC",5,"WEEK 4",28,"TREATMENT","2013-03-02","1986","",29,null,null],[682,"CDISCPILOT01","CM","01-701-1203",17,"3","ALPHAGAN","UNCODED","","UNCODED",1,"TABLET","BID","OPHTHALMIC",5,"WEEK 4",28,"TREATMENT","2013-03-02","2013-01-31","",29,-2,null],[683,"CDISCPILOT01","CM","01-701-1203",18,"4","PILOSTAT","UNCODED","","UNCODED",1,"TABLET","BID","OPHTHALMIC",5,"WEEK 4",28,"TREATMENT","2013-03-02","2013-01-31","",29,-2,null],[684,"CDISCPILOT01","CM","01-701-1203",19,"1","TIMOPTIC","UNCODED","","UNCODED",1,"TABLET","BID","OPHTHALMIC",6,"AMBUL ECG REMOVAL",30,"TREATMENT","2013-03-04","1986","",31,null,null],[685,"CDISCPILOT01","CM","01-701-1203",20,"2","TRUSOPT","UNCODED","","UNCODED",1,"TABLET","BID","OPHTHALMIC",6,"AMBUL ECG REMOVAL",30,"TREATMENT","2013-03-04","1986","",31,null,null],[686,"CDISCPILOT01","CM","01-701-1203",21,"3","ALPHAGAN","UNCODED","","UNCODED",1,"TABLET","BID","OPHTHALMIC",6,"AMBUL ECG REMOVAL",30,"TREATMENT","2013-03-04","2013-01-31","",31,-2,null],[687,"CDISCPILOT01","CM","01-701-1203",22,"4","PILOSTAT","UNCODED","","UNCODED",1,"TABLET","BID","OPHTHALMIC",6,"AMBUL ECG REMOVAL",30,"TREATMENT","2013-03-04","2013-01-31","",31,-2,null],[688,"CDISCPILOT01","CM","01-701-1203",23,"1","TIMOPTIC","UNCODED","","UNCODED",1,"TABLET","BID","OPHTHALMIC",7,"WEEK 6",42,"TREATMENT","2013-03-16","1986","",43,null,null],[689,"CDISCPILOT01","CM","01-701-1203",24,"2","TRUSOPT","UNCODED","","UNCODED",1,"TABLET","BID","OPHTHALMIC",7,"WEEK 6",42,"TREATMENT","2013-03-16","1986","",43,null,null],[690,"CDISCPILOT01","CM","01-701-1203",25,"3","ALPHAGAN","UNCODED","","UNCODED",1,"TABLET","BID","OPHTHALMIC",7,"WEEK 6",42,"TREATMENT","2013-03-16","2013-01-31","",43,-2,null],[691,"CDISCPILOT01","CM","01-701-1203",26,"4","PILOSTAT","UNCODED","","UNCODED",1,"TABLET","BID","OPHTHALMIC",7,"WEEK 6",42,"TREATMENT","2013-03-16","2013-01-31","",43,-2,null],[692,"CDISCPILOT01","CM","01-701-1203",27,"1","TIMOPTIC","UNCODED","","UNCODED",1,"TABLET","BID","OPHTHALMIC",8,"WEEK 8",56,"TREATMENT","2013-03-30","1986","",57,null,null],[693,"CDISCPILOT01","CM","01-701-1203",28,"2","TRUSOPT","UNCODED","","UNCODED",1,"TABLET","BID","OPHTHALMIC",8,"WEEK 8",56,"TREATMENT","2013-03-30","1986","",57,null,null],[694,"CDISCPILOT01","CM","01-701-1203",29,"3","ALPHAGAN","UNCODED","","UNCODED",1,"TABLET","BID","OPHTHALMIC",8,"WEEK 8",56,"TREATMENT","2013-03-30","2013-01-31","",57,-2,null],[695,"CDISCPILOT01","CM","01-701-1203",30,"4","PILOSTAT","UNCODED","","UNCODED",1,"TABLET","BID","OPHTHALMIC",8,"WEEK 8",56,"TREATMENT","2013-03-30","2013-01-31","",57,-2,null],[696,"CDISCPILOT01","CM","01-701-1203",31,"1","TIMOPTIC","UNCODED","","UNCODED",1,"TABLET","BID","OPHTHALMIC",9,"WEEK 12",84,"TREATMENT","2013-05-09","1986","",97,null,null],[697,"CDISCPILOT01","CM","01-701-1203",32,"2","TRUSOPT","UNCODED","","UNCODED",1,"TABLET","BID","OPHTHALMIC",9,"WEEK 12",84,"TREATMENT","2013-05-09","1986","",97,null,null],[698,"CDISCPILOT01","CM","01-701-1203",33,"3","ALPHAGAN","UNCODED","","UNCODED",1,"TABLET","BID","OPHTHALMIC",9,"WEEK 12",84,"TREATMENT","2013-05-09","2013-01-31","",97,-2,null],[699,"CDISCPILOT01","CM","01-701-1203",34,"4","PILOSTAT","UNCODED","","UNCODED",1,"TABLET","BID","OPHTHALMIC",9,"WEEK 12",84,"TREATMENT","2013-05-09","2013-01-31","",97,-2,null],[700,"CDISCPILOT01","CM","01-701-1203",35,"1","TIMOPTIC","UNCODED","","UNCODED",1,"TABLET","BID","OPHTHALMIC",10,"WEEK 16",112,"TREATMENT","2013-05-25","1986","",113,null,null],[701,"CDISCPILOT01","CM","01-701-1203",36,"2","TRUSOPT","UNCODED","","UNCODED",1,"TABLET","BID","OPHTHALMIC",10,"WEEK 16",112,"TREATMENT","2013-05-25","1986","",113,null,null],[702,"CDISCPILOT01","CM","01-701-1203",37,"3","ALPHAGAN","UNCODED","","UNCODED",1,"TABLET","BID","OPHTHALMIC",10,"WEEK 16",112,"TREATMENT","2013-05-25","2013-01-31","",113,-2,null],[703,"CDISCPILOT01","CM","01-701-1203",38,"4","PILOSTAT","UNCODED","","UNCODED",1,"TABLET","BID","OPHTHALMIC",10,"WEEK 16",112,"TREATMENT","2013-05-25","2013-01-31","",113,-2,null],[704,"CDISCPILOT01","CM","01-701-1203",39,"1","TIMOPTIC","UNCODED","","UNCODED",1,"TABLET","BID","OPHTHALMIC",11,"WEEK 20",140,"TREATMENT","2013-06-22","1986","",141,null,null],[705,"CDISCPILOT01","CM","01-701-1203",40,"2","TRUSOPT","UNCODED","","UNCODED",1,"TABLET","BID","OPHTHALMIC",11,"WEEK 20",140,"TREATMENT","2013-06-22","1986","",141,null,null],[706,"CDISCPILOT01","CM","01-701-1203",41,"3","ALPHAGAN","UNCODED","","UNCODED",1,"TABLET","BID","OPHTHALMIC",11,"WEEK 20",140,"TREATMENT","2013-06-22","2013-01-31","",141,-2,null],[707,"CDISCPILOT01","CM","01-701-1203",42,"4","PILOSTAT","UNCODED","","UNCODED",1,"TABLET","BID","OPHTHALMIC",11,"WEEK 20",140,"TREATMENT","2013-06-22","2013-01-31","",141,-2,null],[708,"CDISCPILOT01","CM","01-701-1203",43,"1","TIMOPTIC","UNCODED","","UNCODED",1,"TABLET","BID","OPHTHALMIC",12,"WEEK 24",168,"TREATMENT","2013-07-22","1986","",171,null,null],[709,"CDISCPILOT01","CM","01-701-1203",44,"2","TRUSOPT","UNCODED","","UNCODED",1,"TABLET","BID","OPHTHALMIC",12,"WEEK 24",168,"TREATMENT","2013-07-22","1986","",171,null,null],[710,"CDISCPILOT01","CM","01-701-1203",45,"3","ALPHAGAN","UNCODED","","UNCODED",1,"TABLET","BID","OPHTHALMIC",12,"WEEK 24",168,"TREATMENT","2013-07-22","2013-01-31","",171,-2,null],[711,"CDISCPILOT01","CM","01-701-1203",46,"4","PILOSTAT","UNCODED","","UNCODED",1,"TABLET","BID","OPHTHALMIC",12,"WEEK 24",168,"TREATMENT","2013-07-22","2013-01-31","",171,-2,null],[712,"CDISCPILOT01","CM","01-701-1203",47,"5","MOTRIN","UNCODED","","UNCODED",1,"TABLET","PRN","ORAL",12,"WEEK 24",168,"TREATMENT","2013-07-22","2013-07-04","",171,153,null],[713,"CDISCPILOT01","CM","01-701-1203",48,"6","TYLENOL","UNCODED","","UNCODED",1,"TABLET","PRN","ORAL",12,"WEEK 24",168,"TREATMENT","2013-07-22","2013-07-04","",171,153,null],[714,"CDISCPILOT01","CM","01-701-1203",49,"1","TIMOPTIC","UNCODED","","UNCODED",1,"TABLET","BID","OPHTHALMIC",13,"WEEK 26",182,"TREATMENT","2013-08-03","1986","",183,null,null],[715,"CDISCPILOT01","CM","01-701-1203",50,"2","TRUSOPT","UNCODED","","UNCODED",1,"TABLET","BID","OPHTHALMIC",13,"WEEK 26",182,"TREATMENT","2013-08-03","1986","",183,null,null],[716,"CDISCPILOT01","CM","01-701-1203",51,"3","ALPHAGAN","UNCODED","","UNCODED",1,"TABLET","BID","OPHTHALMIC",13,"WEEK 26",182,"TREATMENT","2013-08-03","2013-01-31","",183,-2,null],[717,"CDISCPILOT01","CM","01-701-1203",52,"4","PILOSTAT","UNCODED","","UNCODED",1,"TABLET","BID","OPHTHALMIC",13,"WEEK 26",182,"TREATMENT","2013-08-03","2013-01-31","",183,-2,null],[718,"CDISCPILOT01","CM","01-701-1203",53,"5","MOTRIN","UNCODED","","UNCODED",1,"TABLET","PRN","ORAL",13,"WEEK 26",182,"TREATMENT","2013-08-03","2013-07-04","",183,153,null],[719,"CDISCPILOT01","CM","01-701-1203",54,"6","TYLENOL","UNCODED","","UNCODED",1,"TABLET","PRN","ORAL",13,"WEEK 26",182,"TREATMENT","2013-08-03","2013-07-04","",183,153,null],[720,"CDISCPILOT01","CM","01-701-1211",1,"1","DEMEROL","UNCODED","","UNCODED",50,"mg","PRN","INTRAVENOUS",4,"WEEK 2",14,"TREATMENT","2012-11-28","2012-11-21","2012-11-21",14,7,7],[721,"CDISCPILOT01","CM","01-701-1211",2,"2","TYLENOL W/CODEINE NO. 3","UNCODED","","UNCODED",2,"TABLET","PRN","ORAL",4,"WEEK 2",14,"TREATMENT","2012-11-28","2012-11-21","2012-11-21",14,7,7],[722,"CDISCPILOT01","CM","01-701-1211",3,"3","HYDROCORTISONE","HYDROCORTISONE","","SYSTEMIC HORMONAL PREPARATIONS, EXCL.",1,"TABLET","PRN","TOPICAL",5,"WEEK 4",28,"TREATMENT","2012-12-11","2012-12-08","",27,24,null],[723,"CDISCPILOT01","CM","01-701-1211",4,"3","HYDROCORTISONE","HYDROCORTISONE","","SYSTEMIC HORMONAL PREPARATIONS, EXCL.",1,"TABLET","PRN","TOPICAL",6,"AMBUL ECG REMOVAL",30,"TREATMENT","2012-12-13","2012-12-08","",29,24,null],[724,"CDISCPILOT01","CM","01-701-1211",5,"3","HYDROCORTISONE","HYDROCORTISONE","","SYSTEMIC HORMONAL PREPARATIONS, EXCL.",1,"TABLET","PRN","TOPICAL",7,"WEEK 6",42,"TREATMENT","2012-12-25","2012-12-08","",41,24,null],[725,"CDISCPILOT01","CM","01-701-1211",6,"3","HYDROCORTISONE","HYDROCORTISONE","","SYSTEMIC HORMONAL PREPARATIONS, EXCL.",1,"TABLET","PRN","TOPICAL",8,"WEEK 8",56,"TREATMENT","2013-01-08","2012-12-08","",55,24,null],[726,"CDISCPILOT01","CM","01-701-1211",7,"4","LOMOTIL","UNCODED","","UNCODED",2.5,"mg","QD","ORAL",8,"WEEK 8",56,"TREATMENT","2013-01-08","2013-01-04","2013-01-04",55,51,51],[727,"CDISCPILOT01","CM","01-701-1211",8,"5","MYLANTA","UNCODED","","UNCODED",1,"TABLET","BID","ORAL",8,"WEEK 8",56,"TREATMENT","2013-01-08","2013-01-05","",55,52,null],[728,"CDISCPILOT01","CM","01-701-1211",9,"3","HYDROCORTISONE","HYDROCORTISONE","","SYSTEMIC HORMONAL PREPARATIONS, EXCL.",1,"TABLET","PRN","TOPICAL",9,"WEEK 12",84,"TREATMENT","2013-01-14","2012-12-08","",61,24,null],[729,"CDISCPILOT01","CM","01-701-1211",10,"5","MYLANTA","UNCODED","","UNCODED",1,"TABLET","BID","ORAL",9,"WEEK 12",84,"TREATMENT","2013-01-14","2013-01-05","",61,52,null],[730,"CDISCPILOT01","CM","01-701-1234",1,"1","NIACIN","UNCODED","PROPHYLAXIS OR NON-THERAPEUTIC USE","UNCODED",1000,"mg","BID","ORAL",1,"SCREENING 1",-7,"SCREENING","2013-03-20","2001","",-10,null,null],[731,"CDISCPILOT01","CM","01-701-1234",2,"1","NIACIN","UNCODED","PROPHYLAXIS OR NON-THERAPEUTIC USE","UNCODED",1000,"mg","BID","ORAL",2,"SCREENING 2",-1,"SCREENING","2013-03-28","2001","",-2,null,null],[732,"CDISCPILOT01","CM","01-701-1234",3,"1","NIACIN","UNCODED","PROPHYLAXIS OR NON-THERAPEUTIC USE","UNCODED",1000,"mg","BID","ORAL",3,"BASELINE",1,"TREATMENT","2013-03-30","2001","",1,null,null],[733,"CDISCPILOT01","CM","01-701-1234",4,"1","NIACIN","UNCODED","PROPHYLAXIS OR NON-THERAPEUTIC USE","UNCODED",1000,"mg","BID","ORAL",4,"WEEK 2",14,"TREATMENT","2013-04-21","2001","",23,null,null],[734,"CDISCPILOT01","CM","01-701-1234",5,"1","NIACIN","UNCODED","PROPHYLAXIS OR NON-THERAPEUTIC USE","UNCODED",1000,"mg","BID","ORAL",5,"WEEK 4",28,"TREATMENT","2013-04-28","2001","",30,null,null],[735,"CDISCPILOT01","CM","01-701-1234",6,"1","NIACIN","UNCODED","PROPHYLAXIS OR NON-THERAPEUTIC USE","UNCODED",1000,"mg","BID","ORAL",6,"AMBUL ECG REMOVAL",30,"TREATMENT","2013-04-30","2001","",32,null,null],[736,"CDISCPILOT01","CM","01-701-1234",7,"1","NIACIN","UNCODED","PROPHYLAXIS OR NON-THERAPEUTIC USE","UNCODED",1000,"mg","BID","ORAL",7,"WEEK 6",42,"TREATMENT","2013-05-08","2001","",40,null,null],[737,"CDISCPILOT01","CM","01-701-1234",8,"1","NIACIN","UNCODED","PROPHYLAXIS OR NON-THERAPEUTIC USE","UNCODED",1000,"mg","BID","ORAL",8,"WEEK 8",56,"TREATMENT","2013-05-26","2001","",58,null,null],[738,"CDISCPILOT01","CM","01-701-1234",9,"1","NIACIN","UNCODED","PROPHYLAXIS OR NON-THERAPEUTIC USE","UNCODED",1000,"mg","BID","ORAL",9,"WEEK 12",84,"TREATMENT","2013-07-07","2001","",100,null,null],[739,"CDISCPILOT01","CM","01-701-1234",10,"1","NIACIN","UNCODED","PROPHYLAXIS OR NON-THERAPEUTIC USE","UNCODED",1000,"mg","BID","ORAL",10,"WEEK 16",112,"TREATMENT","2013-07-27","2001","",120,null,null],[740,"CDISCPILOT01","CM","01-701-1234",11,"1","NIACIN","UNCODED","PROPHYLAXIS OR NON-THERAPEUTIC USE","UNCODED",1000,"mg","BID","ORAL",11,"WEEK 20",140,"TREATMENT","2013-08-18","2001","",142,null,null],[741,"CDISCPILOT01","CM","01-701-1234",12,"1","NIACIN","UNCODED","PROPHYLAXIS OR NON-THERAPEUTIC USE","UNCODED",1000,"mg","BID","ORAL",12,"WEEK 24",168,"TREATMENT","2013-09-10","2001","",165,null,null],[742,"CDISCPILOT01","CM","01-701-1234",13,"1","NIACIN","UNCODED","PROPHYLAXIS OR NON-THERAPEUTIC USE","UNCODED",1000,"mg","BID","ORAL",13,"WEEK 26",182,"TREATMENT","2013-09-22","2001","",177,null,null],[743,"CDISCPILOT01","CM","01-701-1239",1,"1","ADVIL","UNCODED","","UNCODED",2,"TABLET","PRN","ORAL",1,"SCREENING 1",-7,"SCREENING","2013-12-28","2007","",-14,null,null],[744,"CDISCPILOT01","CM","01-701-1239",2,"2","MOTRIN","UNCODED","","UNCODED",2,"TABLET","PRN","ORAL",1,"SCREENING 1",-7,"SCREENING","2013-12-28","2007","",-14,null,null],[745,"CDISCPILOT01","CM","01-701-1239",3,"1","ADVIL","UNCODED","","UNCODED",2,"TABLET","PRN","ORAL",2,"SCREENING 2",-1,"SCREENING","2014-01-09","2007","",-2,null,null],[746,"CDISCPILOT01","CM","01-701-1239",4,"2","MOTRIN","UNCODED","","UNCODED",2,"TABLET","PRN","ORAL",2,"SCREENING 2",-1,"SCREENING","2014-01-09","2007","",-2,null,null],[747,"CDISCPILOT01","CM","01-701-1239",5,"1","ADVIL","UNCODED","","UNCODED",2,"TABLET","PRN","ORAL",3,"BASELINE",1,"TREATMENT","2014-01-11","2007","",1,null,null],[748,"CDISCPILOT01","CM","01-701-1239",6,"2","MOTRIN","UNCODED","","UNCODED",2,"TABLET","PRN","ORAL",3,"BASELINE",1,"TREATMENT","2014-01-11","2007","",1,null,null],[749,"CDISCPILOT01","CM","01-701-1239",7,"1","ADVIL","UNCODED","","UNCODED",2,"TABLET","PRN","ORAL",4,"WEEK 2",14,"TREATMENT","2014-01-25","2007","",15,null,null],[750,"CDISCPILOT01","CM","01-701-1239",8,"2","MOTRIN","UNCODED","","UNCODED",2,"TABLET","PRN","ORAL",4,"WEEK 2",14,"TREATMENT","2014-01-25","2007","",15,null,null],[751,"CDISCPILOT01","CM","01-701-1239",9,"1","ADVIL","UNCODED","","UNCODED",2,"TABLET","PRN","ORAL",5,"WEEK 4",28,"TREATMENT","2014-02-08","2007","",29,null,null],[752,"CDISCPILOT01","CM","01-701-1239",10,"2","MOTRIN","UNCODED","","UNCODED",2,"TABLET","PRN","ORAL",5,"WEEK 4",28,"TREATMENT","2014-02-08","2007","",29,null,null],[753,"CDISCPILOT01","CM","01-701-1239",11,"3","DIABETA","UNCODED","","UNCODED",2.5,"mg","QD","ORAL",5,"WEEK 4",28,"TREATMENT","2014-02-08","2014-02-04","",29,25,null],[754,"CDISCPILOT01","CM","01-701-1239",12,"1","ADVIL","UNCODED","","UNCODED",2,"TABLET","PRN","ORAL",6,"AMBUL ECG REMOVAL",30,"TREATMENT","2014-02-10","2007","",31,null,null],[755,"CDISCPILOT01","CM","01-701-1239",13,"2","MOTRIN","UNCODED","","UNCODED",2,"TABLET","PRN","ORAL",6,"AMBUL ECG REMOVAL",30,"TREATMENT","2014-02-10","2007","",31,null,null],[756,"CDISCPILOT01","CM","01-701-1239",14,"3","DIABETA","UNCODED","","UNCODED",2.5,"mg","QD","ORAL",6,"AMBUL ECG REMOVAL",30,"TREATMENT","2014-02-10","2014-02-04","",31,25,null],[757,"CDISCPILOT01","CM","01-701-1239",15,"1","ADVIL","UNCODED","","UNCODED",2,"TABLET","PRN","ORAL",7,"WEEK 6",42,"TREATMENT","2014-02-19","2007","",40,null,null],[758,"CDISCPILOT01","CM","01-701-1239",16,"2","MOTRIN","UNCODED","","UNCODED",2,"TABLET","PRN","ORAL",7,"WEEK 6",42,"TREATMENT","2014-02-19","2007","",40,null,null],[759,"CDISCPILOT01","CM","01-701-1239",17,"3","DIABETA","UNCODED","","UNCODED",2.5,"mg","QD","ORAL",7,"WEEK 6",42,"TREATMENT","2014-02-19","2014-02-04","",40,25,null],[760,"CDISCPILOT01","CM","01-701-1239",18,"1","ADVIL","UNCODED","","UNCODED",2,"TABLET","PRN","ORAL",8,"WEEK 8",56,"TREATMENT","2014-03-06","2007","",55,null,null],[761,"CDISCPILOT01","CM","01-701-1239",19,"2","MOTRIN","UNCODED","","UNCODED",2,"TABLET","PRN","ORAL",8,"WEEK 8",56,"TREATMENT","2014-03-06","2007","",55,null,null],[762,"CDISCPILOT01","CM","01-701-1239",20,"3","DIABETA","UNCODED","","UNCODED",2.5,"mg","QD","ORAL",8,"WEEK 8",56,"TREATMENT","2014-03-06","2014-02-04","",55,25,null],[763,"CDISCPILOT01","CM","01-701-1239",21,"1","ADVIL","UNCODED","","UNCODED",2,"TABLET","PRN","ORAL",9,"WEEK 12",84,"TREATMENT","2014-04-02","2007","",82,null,null],[764,"CDISCPILOT01","CM","01-701-1239",22,"2","MOTRIN","UNCODED","","UNCODED",2,"TABLET","PRN","ORAL",9,"WEEK 12",84,"TREATMENT","2014-04-02","2007","",82,null,null],[765,"CDISCPILOT01","CM","01-701-1239",23,"3","DIABETA","UNCODED","","UNCODED",2.5,"mg","QD","ORAL",9,"WEEK 12",84,"TREATMENT","2014-04-02","2014-02-04","",82,25,null],[766,"CDISCPILOT01","CM","01-701-1239",24,"1","ADVIL","UNCODED","","UNCODED",2,"TABLET","PRN","ORAL",10,"WEEK 16",112,"TREATMENT","2014-05-02","2007","",112,null,null],[767,"CDISCPILOT01","CM","01-701-1239",25,"2","MOTRIN","UNCODED","","UNCODED",2,"TABLET","PRN","ORAL",10,"WEEK 16",112,"TREATMENT","2014-05-02","2007","",112,null,null],[768,"CDISCPILOT01","CM","01-701-1239",26,"3","DIABETA","UNCODED","","UNCODED",2.5,"mg","QD","ORAL",10,"WEEK 16",112,"TREATMENT","2014-05-02","2014-02-04","",112,25,null],[769,"CDISCPILOT01","CM","01-701-1239",27,"1","ADVIL","UNCODED","","UNCODED",2,"TABLET","PRN","ORAL",11,"WEEK 20",140,"TREATMENT","2014-05-28","2007","",138,null,null],[770,"CDISCPILOT01","CM","01-701-1239",28,"2","MOTRIN","UNCODED","","UNCODED",2,"TABLET","PRN","ORAL",11,"WEEK 20",140,"TREATMENT","2014-05-28","2007","",138,null,null],[771,"CDISCPILOT01","CM","01-701-1239",29,"3","DIABETA","UNCODED","","UNCODED",2.5,"mg","QD","ORAL",11,"WEEK 20",140,"TREATMENT","2014-05-28","2014-02-04","",138,25,null],[772,"CDISCPILOT01","CM","01-701-1239",30,"1","ADVIL","UNCODED","","UNCODED",2,"TABLET","PRN","ORAL",12,"WEEK 24",168,"TREATMENT","2014-06-27","2007","",168,null,null],[773,"CDISCPILOT01","CM","01-701-1239",31,"2","MOTRIN","UNCODED","","UNCODED",2,"TABLET","PRN","ORAL",12,"WEEK 24",168,"TREATMENT","2014-06-27","2007","",168,null,null],[774,"CDISCPILOT01","CM","01-701-1239",32,"3","DIABETA","UNCODED","","UNCODED",2.5,"mg","QD","ORAL",12,"WEEK 24",168,"TREATMENT","2014-06-27","2014-02-04","",168,25,null],[775,"CDISCPILOT01","CM","01-701-1239",33,"1","ADVIL","UNCODED","","UNCODED",2,"TABLET","PRN","ORAL",13,"WEEK 26",182,"TREATMENT","2014-07-11","2007","",182,null,null],[776,"CDISCPILOT01","CM","01-701-1239",34,"2","MOTRIN","UNCODED","","UNCODED",2,"TABLET","PRN","ORAL",13,"WEEK 26",182,"TREATMENT","2014-07-11","2007","",182,null,null],[777,"CDISCPILOT01","CM","01-701-1239",35,"3","DIABETA","UNCODED","","UNCODED",2.5,"mg","QD","ORAL",13,"WEEK 26",182,"TREATMENT","2014-07-11","2014-02-04","",182,25,null],[778,"CDISCPILOT01","CM","01-701-1275",1,"1","TYLENOL","UNCODED","","UNCODED",325,"mg","PRN","ORAL",1,"SCREENING 1",-7,"SCREENING","2014-01-25","1997","",-13,null,null],[779,"CDISCPILOT01","CM","01-701-1275",2,"1","TYLENOL","UNCODED","","UNCODED",325,"mg","PRN","ORAL",2,"SCREENING 2",-1,"SCREENING","2014-02-05","1997","",-2,null,null],[780,"CDISCPILOT01","CM","01-701-1275",3,"1","TYLENOL","UNCODED","","UNCODED",325,"mg","PRN","ORAL",3,"BASELINE",1,"TREATMENT","2014-02-07","1997","",1,null,null],[781,"CDISCPILOT01","CM","01-701-1275",4,"1","TYLENOL","UNCODED","","UNCODED",325,"mg","PRN","ORAL",4,"WEEK 2",14,"TREATMENT","2014-02-22","1997","",16,null,null],[782,"CDISCPILOT01","CM","01-701-1275",5,"1","TYLENOL","UNCODED","","UNCODED",325,"mg","PRN","ORAL",5,"WEEK 4",28,"TREATMENT","2014-03-07","1997","",29,null,null],[783,"CDISCPILOT01","CM","01-701-1275",6,"1","TYLENOL","UNCODED","","UNCODED",325,"mg","PRN","ORAL",6,"AMBUL ECG REMOVAL",30,"TREATMENT","2014-03-08","1997","",30,null,null],[784,"CDISCPILOT01","CM","01-701-1275",7,"1","TYLENOL","UNCODED","","UNCODED",325,"mg","PRN","ORAL",7,"WEEK 6",42,"TREATMENT","2014-03-22","1997","",44,null,null],[785,"CDISCPILOT01","CM","01-701-1275",8,"2","VITAMIN C","UNCODED","","UNCODED",500,"mg","QD","ORAL",7,"WEEK 6",42,"TREATMENT","2014-03-22","2014-03-12","",44,34,null],[786,"CDISCPILOT01","CM","01-701-1275",9,"1","TYLENOL","UNCODED","","UNCODED",325,"mg","PRN","ORAL",8,"WEEK 8",56,"TREATMENT","2014-04-05","1997","",58,null,null],[787,"CDISCPILOT01","CM","01-701-1275",10,"2","VITAMIN C","UNCODED","","UNCODED",500,"mg","QD","ORAL",8,"WEEK 8",56,"TREATMENT","2014-04-05","2014-03-12","",58,34,null],[788,"CDISCPILOT01","CM","01-701-1275",11,"1","TYLENOL","UNCODED","","UNCODED",325,"mg","PRN","ORAL",9,"WEEK 12",84,"TREATMENT","2014-05-03","1997","",86,null,null],[789,"CDISCPILOT01","CM","01-701-1275",12,"2","VITAMIN C","UNCODED","","UNCODED",500,"mg","QD","ORAL",9,"WEEK 12",84,"TREATMENT","2014-05-03","2014-03-12","",86,34,null],[790,"CDISCPILOT01","CM","01-701-1275",13,"1","TYLENOL","UNCODED","","UNCODED",325,"mg","PRN","ORAL",10,"WEEK 16",112,"TREATMENT","2014-06-14","1997","",128,null,null],[791,"CDISCPILOT01","CM","01-701-1275",14,"2","VITAMIN C","UNCODED","","UNCODED",500,"mg","QD","ORAL",10,"WEEK 16",112,"TREATMENT","2014-06-14","2014-03-12","",128,34,null],[792,"CDISCPILOT01","CM","01-701-1287",1,"1","MULTIVITAMIN","UNCODED","PROPHYLAXIS OR NON-THERAPEUTIC USE","UNCODED",1,"TABLET","QD","ORAL",1,"SCREENING 1",-7,"SCREENING","2014-01-17","2001-10","",-8,null,null],[793,"CDISCPILOT01","CM","01-701-1287",2,"2","PREMARIN","ESTROGENS CONJUGATED","PROPHYLAXIS OR NON-THERAPEUTIC USE","GENITO URINARY SYSTEM AND SEX HORMONES",0.625,"mg","QD","ORAL",1,"SCREENING 1",-7,"SCREENING","2014-01-17","2013-06-28","",-8,-211,null],[794,"CDISCPILOT01","CM","01-701-1287",3,"1","MULTIVITAMIN","UNCODED","PROPHYLAXIS OR NON-THERAPEUTIC USE","UNCODED",1,"TABLET","QD","ORAL",2,"SCREENING 2",-1,"SCREENING","2014-01-23","2001-10","",-2,null,null],[795,"CDISCPILOT01","CM","01-701-1287",4,"2","PREMARIN","ESTROGENS CONJUGATED","PROPHYLAXIS OR NON-THERAPEUTIC USE","GENITO URINARY SYSTEM AND SEX HORMONES",0.625,"mg","QD","ORAL",2,"SCREENING 2",-1,"SCREENING","2014-01-23","2013-06-28","",-2,-211,null],[796,"CDISCPILOT01","CM","01-701-1287",5,"1","MULTIVITAMIN","UNCODED","PROPHYLAXIS OR NON-THERAPEUTIC USE","UNCODED",1,"TABLET","QD","ORAL",3,"BASELINE",1,"TREATMENT","2014-01-25","2001-10","",1,null,null],[797,"CDISCPILOT01","CM","01-701-1287",6,"2","PREMARIN","ESTROGENS CONJUGATED","PROPHYLAXIS OR NON-THERAPEUTIC USE","GENITO URINARY SYSTEM AND SEX HORMONES",0.625,"mg","QD","ORAL",3,"BASELINE",1,"TREATMENT","2014-01-25","2013-06-28","",1,-211,null],[798,"CDISCPILOT01","CM","01-701-1287",7,"1","MULTIVITAMIN","UNCODED","PROPHYLAXIS OR NON-THERAPEUTIC USE","UNCODED",1,"TABLET","QD","ORAL",4,"WEEK 2",14,"TREATMENT","2014-02-11","2001-10","",18,null,null],[799,"CDISCPILOT01","CM","01-701-1287",8,"2","PREMARIN","ESTROGENS CONJUGATED","PROPHYLAXIS OR NON-THERAPEUTIC USE","GENITO URINARY SYSTEM AND SEX HORMONES",0.625,"mg","QD","ORAL",4,"WEEK 2",14,"TREATMENT","2014-02-11","2013-06-28","",18,-211,null],[800,"CDISCPILOT01","CM","01-701-1287",9,"1","MULTIVITAMIN","UNCODED","PROPHYLAXIS OR NON-THERAPEUTIC USE","UNCODED",1,"TABLET","QD","ORAL",5,"WEEK 4",28,"TREATMENT","2014-02-20","2001-10","",27,null,null],[801,"CDISCPILOT01","CM","01-701-1287",10,"2","PREMARIN","ESTROGENS CONJUGATED","PROPHYLAXIS OR NON-THERAPEUTIC USE","GENITO URINARY SYSTEM AND SEX HORMONES",0.625,"mg","QD","ORAL",5,"WEEK 4",28,"TREATMENT","2014-02-20","2013-06-28","",27,-211,null],[802,"CDISCPILOT01","CM","01-701-1287",11,"1","MULTIVITAMIN","UNCODED","PROPHYLAXIS OR NON-THERAPEUTIC USE","UNCODED",1,"TABLET","QD","ORAL",6,"AMBUL ECG REMOVAL",30,"TREATMENT","2014-02-22","2001-10","",29,null,null],[803,"CDISCPILOT01","CM","01-701-1287",12,"2","PREMARIN","ESTROGENS CONJUGATED","PROPHYLAXIS OR NON-THERAPEUTIC USE","GENITO URINARY SYSTEM AND SEX HORMONES",0.625,"mg","QD","ORAL",6,"AMBUL ECG REMOVAL",30,"TREATMENT","2014-02-22","2013-06-28","",29,-211,null],[804,"CDISCPILOT01","CM","01-701-1287",13,"1","MULTIVITAMIN","UNCODED","PROPHYLAXIS OR NON-THERAPEUTIC USE","UNCODED",1,"TABLET","QD","ORAL",7,"WEEK 6",42,"TREATMENT","2014-03-06","2001-10","",41,null,null],[805,"CDISCPILOT01","CM","01-701-1287",14,"2","PREMARIN","ESTROGENS CONJUGATED","PROPHYLAXIS OR NON-THERAPEUTIC USE","GENITO URINARY SYSTEM AND SEX HORMONES",0.625,"mg","QD","ORAL",7,"WEEK 6",42,"TREATMENT","2014-03-06","2013-06-28","",41,-211,null],[806,"CDISCPILOT01","CM","01-701-1287",15,"1","MULTIVITAMIN","UNCODED","PROPHYLAXIS OR NON-THERAPEUTIC USE","UNCODED",1,"TABLET","QD","ORAL",8,"WEEK 8",56,"TREATMENT","2014-03-21","2001-10","",56,null,null],[807,"CDISCPILOT01","CM","01-701-1287",16,"2","PREMARIN","ESTROGENS CONJUGATED","PROPHYLAXIS OR NON-THERAPEUTIC USE","GENITO URINARY SYSTEM AND SEX HORMONES",0.625,"mg","QD","ORAL",8,"WEEK 8",56,"TREATMENT","2014-03-21","2013-06-28","",56,-211,null],[808,"CDISCPILOT01","CM","01-701-1287",17,"3","ALOE VERA","UNCODED","","UNCODED",1,"TABLET","PRN","TOPICAL",8,"WEEK 8",56,"TREATMENT","2014-03-21","2014-03-09","",56,44,null],[809,"CDISCPILOT01","CM","01-701-1287",18,"1","MULTIVITAMIN","UNCODED","PROPHYLAXIS OR NON-THERAPEUTIC USE","UNCODED",1,"TABLET","QD","ORAL",9,"WEEK 12",84,"TREATMENT","2014-04-17","2001-10","",83,null,null],[810,"CDISCPILOT01","CM","01-701-1287",19,"2","PREMARIN","ESTROGENS CONJUGATED","PROPHYLAXIS OR NON-THERAPEUTIC USE","GENITO URINARY SYSTEM AND SEX HORMONES",0.625,"mg","QD","ORAL",9,"WEEK 12",84,"TREATMENT","2014-04-17","2013-06-28","",83,-211,null],[811,"CDISCPILOT01","CM","01-701-1287",20,"3","ALOE VERA","UNCODED","","UNCODED",1,"TABLET","PRN","TOPICAL",9,"WEEK 12",84,"TREATMENT","2014-04-17","2014-03-09","",83,44,null],[812,"CDISCPILOT01","CM","01-701-1287",21,"1","MULTIVITAMIN","UNCODED","PROPHYLAXIS OR NON-THERAPEUTIC USE","UNCODED",1,"TABLET","QD","ORAL",10,"WEEK 16",112,"TREATMENT","2014-05-15","2001-10","",111,null,null],[813,"CDISCPILOT01","CM","01-701-1287",22,"2","PREMARIN","ESTROGENS CONJUGATED","PROPHYLAXIS OR NON-THERAPEUTIC USE","GENITO URINARY SYSTEM AND SEX HORMONES",0.625,"mg","QD","ORAL",10,"WEEK 16",112,"TREATMENT","2014-05-15","2013-06-28","",111,-211,null],[814,"CDISCPILOT01","CM","01-701-1287",23,"3","ALOE VERA","UNCODED","","UNCODED",1,"TABLET","PRN","TOPICAL",10,"WEEK 16",112,"TREATMENT","2014-05-15","2014-03-09","",111,44,null],[815,"CDISCPILOT01","CM","01-701-1287",24,"4","HYDROCORTISONE","HYDROCORTISONE","","SYSTEMIC HORMONAL PREPARATIONS, EXCL.",2,"TABLET","QD","TOPICAL",10,"WEEK 16",112,"TREATMENT","2014-05-15","2014-04-18","",111,84,null],[816,"CDISCPILOT01","CM","01-701-1287",25,"1","MULTIVITAMIN","UNCODED","PROPHYLAXIS OR NON-THERAPEUTIC USE","UNCODED",1,"TABLET","QD","ORAL",11,"WEEK 20",140,"TREATMENT","2014-06-12","2001-10","",139,null,null],[817,"CDISCPILOT01","CM","01-701-1287",26,"2","PREMARIN","ESTROGENS CONJUGATED","PROPHYLAXIS OR NON-THERAPEUTIC USE","GENITO URINARY SYSTEM AND SEX HORMONES",0.625,"mg","QD","ORAL",11,"WEEK 20",140,"TREATMENT","2014-06-12","2013-06-28","",139,-211,null],[818,"CDISCPILOT01","CM","01-701-1287",27,"3","ALOE VERA","UNCODED","","UNCODED",1,"TABLET","PRN","TOPICAL",11,"WEEK 20",140,"TREATMENT","2014-06-12","2014-03-09","",139,44,null],[819,"CDISCPILOT01","CM","01-701-1287",28,"4","HYDROCORTISONE","HYDROCORTISONE","","SYSTEMIC HORMONAL PREPARATIONS, EXCL.",2,"TABLET","QD","TOPICAL",11,"WEEK 20",140,"TREATMENT","2014-06-12","2014-04-18","",139,84,null],[820,"CDISCPILOT01","CM","01-701-1287",29,"1","MULTIVITAMIN","UNCODED","PROPHYLAXIS OR NON-THERAPEUTIC USE","UNCODED",1,"TABLET","QD","ORAL",12,"WEEK 24",168,"TREATMENT","2014-07-12","2001-10","",169,null,null],[821,"CDISCPILOT01","CM","01-701-1287",30,"2","PREMARIN","ESTROGENS CONJUGATED","PROPHYLAXIS OR NON-THERAPEUTIC USE","GENITO URINARY SYSTEM AND SEX HORMONES",0.625,"mg","QD","ORAL",12,"WEEK 24",168,"TREATMENT","2014-07-12","2013-06-28","",169,-211,null],[822,"CDISCPILOT01","CM","01-701-1287",31,"3","ALOE VERA","UNCODED","","UNCODED",1,"TABLET","PRN","TOPICAL",12,"WEEK 24",168,"TREATMENT","2014-07-12","2014-03-09","",169,44,null],[823,"CDISCPILOT01","CM","01-701-1287",32,"4","HYDROCORTISONE","HYDROCORTISONE","","SYSTEMIC HORMONAL PREPARATIONS, EXCL.",2,"TABLET","QD","TOPICAL",12,"WEEK 24",168,"TREATMENT","2014-07-12","2014-04-18","",169,84,null],[824,"CDISCPILOT01","CM","01-701-1287",33,"1","MULTIVITAMIN","UNCODED","PROPHYLAXIS OR NON-THERAPEUTIC USE","UNCODED",1,"TABLET","QD","ORAL",13,"WEEK 26",182,"TREATMENT","2014-07-26","2001-10","",183,null,null],[825,"CDISCPILOT01","CM","01-701-1287",34,"2","PREMARIN","ESTROGENS CONJUGATED","PROPHYLAXIS OR NON-THERAPEUTIC USE","GENITO URINARY SYSTEM AND SEX HORMONES",0.625,"mg","QD","ORAL",13,"WEEK 26",182,"TREATMENT","2014-07-26","2013-06-28","",183,-211,null],[826,"CDISCPILOT01","CM","01-701-1287",35,"3","ALOE VERA","UNCODED","","UNCODED",1,"TABLET","PRN","TOPICAL",13,"WEEK 26",182,"TREATMENT","2014-07-26","2014-03-09","",183,44,null],[827,"CDISCPILOT01","CM","01-701-1287",36,"4","HYDROCORTISONE","HYDROCORTISONE","","SYSTEMIC HORMONAL PREPARATIONS, EXCL.",2,"TABLET","QD","TOPICAL",13,"WEEK 26",182,"TREATMENT","2014-07-26","2014-04-18","",183,84,null],[828,"CDISCPILOT01","CM","01-701-1294",1,"1","HISMANAL","UNCODED","","UNCODED",10,"mg","PRN","ORAL",1,"SCREENING 1",-7,"SCREENING","2013-03-17","2012-03","",-7,null,null],[829,"CDISCPILOT01","CM","01-701-1294",2,"3","NASACORT","UNCODED","","UNCODED",1,"TABLET","QD","RESPIRATORY (INHALATION)",1,"SCREENING 1",-7,"SCREENING","2013-03-17","2012-03","",-7,null,null],[830,"CDISCPILOT01","CM","01-701-1294",3,"2","MULTIVITAMIN","UNCODED","PROPHYLAXIS OR NON-THERAPEUTIC USE","UNCODED",3,"mg","QD","ORAL",1,"SCREENING 1",-7,"SCREENING","2013-03-17","2012-12","",-7,null,null],[831,"CDISCPILOT01","CM","01-701-1294",4,"1","HISMANAL","UNCODED","","UNCODED",10,"mg","PRN","ORAL",2,"SCREENING 2",-1,"SCREENING","2013-03-22","2012-03","",-2,null,null],[832,"CDISCPILOT01","CM","01-701-1294",5,"3","NASACORT","UNCODED","","UNCODED",1,"TABLET","QD","RESPIRATORY (INHALATION)",2,"SCREENING 2",-1,"SCREENING","2013-03-22","2012-03","",-2,null,null],[833,"CDISCPILOT01","CM","01-701-1294",6,"2","MULTIVITAMIN","UNCODED","PROPHYLAXIS OR NON-THERAPEUTIC USE","UNCODED",3,"mg","QD","ORAL",2,"SCREENING 2",-1,"SCREENING","2013-03-22","2012-12","",-2,null,null],[834,"CDISCPILOT01","CM","01-701-1294",7,"1","HISMANAL","UNCODED","","UNCODED",10,"mg","PRN","ORAL",3,"BASELINE",1,"TREATMENT","2013-03-24","2012-03","",1,null,null],[835,"CDISCPILOT01","CM","01-701-1294",8,"3","NASACORT","UNCODED","","UNCODED",1,"TABLET","QD","RESPIRATORY (INHALATION)",3,"BASELINE",1,"TREATMENT","2013-03-24","2012-03","",1,null,null],[836,"CDISCPILOT01","CM","01-701-1294",9,"2","MULTIVITAMIN","UNCODED","PROPHYLAXIS OR NON-THERAPEUTIC USE","UNCODED",3,"mg","QD","ORAL",3,"BASELINE",1,"TREATMENT","2013-03-24","2012-12","",1,null,null],[837,"CDISCPILOT01","CM","01-701-1294",10,"1","HISMANAL","UNCODED","","UNCODED",10,"mg","PRN","ORAL",4,"WEEK 2",14,"TREATMENT","2013-04-10","2012-03","",18,null,null],[838,"CDISCPILOT01","CM","01-701-1294",11,"3","NASACORT","UNCODED","","UNCODED",1,"TABLET","QD","RESPIRATORY (INHALATION)",4,"WEEK 2",14,"TREATMENT","2013-04-10","2012-03","",18,null,null],[839,"CDISCPILOT01","CM","01-701-1294",12,"2","MULTIVITAMIN","UNCODED","PROPHYLAXIS OR NON-THERAPEUTIC USE","UNCODED",3,"mg","QD","ORAL",4,"WEEK 2",14,"TREATMENT","2013-04-10","2012-12","",18,null,null],[840,"CDISCPILOT01","CM","01-701-1294",13,"1","HISMANAL","UNCODED","","UNCODED",10,"mg","PRN","ORAL",5,"WEEK 4",28,"TREATMENT","2013-04-24","2012-03","",32,null,null],[841,"CDISCPILOT01","CM","01-701-1294",14,"3","NASACORT","UNCODED","","UNCODED",1,"TABLET","QD","RESPIRATORY (INHALATION)",5,"WEEK 4",28,"TREATMENT","2013-04-24","2012-03","",32,null,null],[842,"CDISCPILOT01","CM","01-701-1294",15,"2","MULTIVITAMIN","UNCODED","PROPHYLAXIS OR NON-THERAPEUTIC USE","UNCODED",3,"mg","QD","ORAL",5,"WEEK 4",28,"TREATMENT","2013-04-24","2012-12","",32,null,null],[843,"CDISCPILOT01","CM","01-701-1294",16,"1","HISMANAL","UNCODED","","UNCODED",10,"mg","PRN","ORAL",6,"AMBUL ECG REMOVAL",30,"TREATMENT","2013-04-26","2012-03","",34,null,null],[844,"CDISCPILOT01","CM","01-701-1294",17,"3","NASACORT","UNCODED","","UNCODED",1,"TABLET","QD","RESPIRATORY (INHALATION)",6,"AMBUL ECG REMOVAL",30,"TREATMENT","2013-04-26","2012-03","",34,null,null],[845,"CDISCPILOT01","CM","01-701-1294",18,"2","MULTIVITAMIN","UNCODED","PROPHYLAXIS OR NON-THERAPEUTIC USE","UNCODED",3,"mg","QD","ORAL",6,"AMBUL ECG REMOVAL",30,"TREATMENT","2013-04-26","2012-12","",34,null,null],[846,"CDISCPILOT01","CM","01-701-1294",19,"1","HISMANAL","UNCODED","","UNCODED",10,"mg","PRN","ORAL",7,"WEEK 6",42,"TREATMENT","2013-05-08","2012-03","",46,null,null],[847,"CDISCPILOT01","CM","01-701-1294",20,"3","NASACORT","UNCODED","","UNCODED",1,"TABLET","QD","RESPIRATORY (INHALATION)",7,"WEEK 6",42,"TREATMENT","2013-05-08","2012-03","",46,null,null],[848,"CDISCPILOT01","CM","01-701-1294",21,"2","MULTIVITAMIN","UNCODED","PROPHYLAXIS OR NON-THERAPEUTIC USE","UNCODED",3,"mg","QD","ORAL",7,"WEEK 6",42,"TREATMENT","2013-05-08","2012-12","",46,null,null],[849,"CDISCPILOT01","CM","01-701-1294",22,"1","HISMANAL","UNCODED","","UNCODED",10,"mg","PRN","ORAL",8,"WEEK 8",56,"TREATMENT","2013-05-22","2012-03","",60,null,null],[850,"CDISCPILOT01","CM","01-701-1294",23,"3","NASACORT","UNCODED","","UNCODED",1,"TABLET","QD","RESPIRATORY (INHALATION)",8,"WEEK 8",56,"TREATMENT","2013-05-22","2012-03","",60,null,null],[851,"CDISCPILOT01","CM","01-701-1294",24,"2","MULTIVITAMIN","UNCODED","PROPHYLAXIS OR NON-THERAPEUTIC USE","UNCODED",3,"mg","QD","ORAL",8,"WEEK 8",56,"TREATMENT","2013-05-22","2012-12","",60,null,null],[852,"CDISCPILOT01","CM","01-701-1294",25,"1","HISMANAL","UNCODED","","UNCODED",10,"mg","PRN","ORAL",9,"WEEK 12",84,"TREATMENT","2013-06-14","2012-03","",83,null,null],[853,"CDISCPILOT01","CM","01-701-1294",26,"3","NASACORT","UNCODED","","UNCODED",1,"TABLET","QD","RESPIRATORY (INHALATION)",9,"WEEK 12",84,"TREATMENT","2013-06-14","2012-03","",83,null,null],[854,"CDISCPILOT01","CM","01-701-1294",27,"2","MULTIVITAMIN","UNCODED","PROPHYLAXIS OR NON-THERAPEUTIC USE","UNCODED",3,"mg","QD","ORAL",9,"WEEK 12",84,"TREATMENT","2013-06-14","2012-12","",83,null,null],[855,"CDISCPILOT01","CM","01-701-1294",28,"4","HYDROCORTISONE","HYDROCORTISONE","","SYSTEMIC HORMONAL PREPARATIONS, EXCL.",1,"TABLET","QD","TOPICAL",9,"WEEK 12",84,"TREATMENT","2013-06-14","2013-06-04","2013-06-12",83,73,81],[856,"CDISCPILOT01","CM","01-701-1294",29,"1","HISMANAL","UNCODED","","UNCODED",10,"mg","PRN","ORAL",101,"AE FOLLOW-UP",null,"SCREENING","2013-08-23","2012-03","",153,null,null],[857,"CDISCPILOT01","CM","01-701-1294",30,"3","NASACORT","UNCODED","","UNCODED",1,"TABLET","QD","RESPIRATORY (INHALATION)",101,"AE FOLLOW-UP",null,"SCREENING","2013-08-23","2012-03","",153,null,null],[858,"CDISCPILOT01","CM","01-701-1294",31,"2","MULTIVITAMIN","UNCODED","PROPHYLAXIS OR NON-THERAPEUTIC USE","UNCODED",3,"mg","QD","ORAL",101,"AE FOLLOW-UP",null,"SCREENING","2013-08-23","2012-12","",153,null,null],[859,"CDISCPILOT01","CM","01-701-1294",32,"1","HISMANAL","UNCODED","","UNCODED",10,"mg","PRN","ORAL",201,"RETRIEVAL",168,"TREATMENT","2013-10-08","2012-03","",199,null,null],[860,"CDISCPILOT01","CM","01-701-1294",33,"3","NASACORT","UNCODED","","UNCODED",1,"TABLET","QD","RESPIRATORY (INHALATION)",201,"RETRIEVAL",168,"TREATMENT","2013-10-08","2012-03","",199,null,null],[861,"CDISCPILOT01","CM","01-701-1294",34,"2","MULTIVITAMIN","UNCODED","PROPHYLAXIS OR NON-THERAPEUTIC USE","UNCODED",3,"mg","QD","ORAL",201,"RETRIEVAL",168,"TREATMENT","2013-10-08","2012-12","",199,null,null],[862,"CDISCPILOT01","CM","01-701-1302",1,"1","ADVIL","UNCODED","","UNCODED",2,"TABLET","PRN","ORAL",1,"SCREENING 1",-7,"SCREENING","2013-08-20","2010","",-9,null,null],[863,"CDISCPILOT01","CM","01-701-1302",2,"4","MULTIVITAMINS","UNCODED","PROPHYLAXIS OR NON-THERAPEUTIC USE","UNCODED",1,"TABLET","QD","ORAL",1,"SCREENING 1",-7,"SCREENING","2013-08-20","2010","",-9,null,null],[864,"CDISCPILOT01","CM","01-701-1302",3,"2","EXCEDRIN","UNCODED","","UNCODED",2,"TABLET","PRN","ORAL",1,"SCREENING 1",-7,"SCREENING","2013-08-20","2011","",-9,null,null],[865,"CDISCPILOT01","CM","01-701-1302",4,"3","METAMUCIL","UNCODED","","UNCODED",2,"TABLET","QD","ORAL",1,"SCREENING 1",-7,"SCREENING","2013-08-20","2012-03-01","",-9,-546,null],[866,"CDISCPILOT01","CM","01-701-1302",5,"1","ADVIL","UNCODED","","UNCODED",2,"TABLET","PRN","ORAL",2,"SCREENING 2",-1,"SCREENING","2013-08-27","2010","",-2,null,null],[867,"CDISCPILOT01","CM","01-701-1302",6,"4","MULTIVITAMINS","UNCODED","PROPHYLAXIS OR NON-THERAPEUTIC USE","UNCODED",1,"TABLET","QD","ORAL",2,"SCREENING 2",-1,"SCREENING","2013-08-27","2010","",-2,null,null],[868,"CDISCPILOT01","CM","01-701-1302",7,"2","EXCEDRIN","UNCODED","","UNCODED",2,"TABLET","PRN","ORAL",2,"SCREENING 2",-1,"SCREENING","2013-08-27","2011","",-2,null,null],[869,"CDISCPILOT01","CM","01-701-1302",8,"3","METAMUCIL","UNCODED","","UNCODED",2,"TABLET","QD","ORAL",2,"SCREENING 2",-1,"SCREENING","2013-08-27","2012-03-01","",-2,-546,null],[870,"CDISCPILOT01","CM","01-701-1302",9,"1","ADVIL","UNCODED","","UNCODED",2,"TABLET","PRN","ORAL",3,"BASELINE",1,"TREATMENT","2013-08-29","2010","",1,null,null],[871,"CDISCPILOT01","CM","01-701-1302",10,"4","MULTIVITAMINS","UNCODED","PROPHYLAXIS OR NON-THERAPEUTIC USE","UNCODED",1,"TABLET","QD","ORAL",3,"BASELINE",1,"TREATMENT","2013-08-29","2010","",1,null,null],[872,"CDISCPILOT01","CM","01-701-1302",11,"2","EXCEDRIN","UNCODED","","UNCODED",2,"TABLET","PRN","ORAL",3,"BASELINE",1,"TREATMENT","2013-08-29","2011","",1,null,null],[873,"CDISCPILOT01","CM","01-701-1302",12,"3","METAMUCIL","UNCODED","","UNCODED",2,"TABLET","QD","ORAL",3,"BASELINE",1,"TREATMENT","2013-08-29","2012-03-01","",1,-546,null],[874,"CDISCPILOT01","CM","01-701-1302",13,"1","ADVIL","UNCODED","","UNCODED",2,"TABLET","PRN","ORAL",4,"WEEK 2",14,"TREATMENT","2013-09-15","2010","",18,null,null],[875,"CDISCPILOT01","CM","01-701-1302",14,"4","MULTIVITAMINS","UNCODED","PROPHYLAXIS OR NON-THERAPEUTIC USE","UNCODED",1,"TABLET","QD","ORAL",4,"WEEK 2",14,"TREATMENT","2013-09-15","2010","",18,null,null],[876,"CDISCPILOT01","CM","01-701-1302",15,"2","EXCEDRIN","UNCODED","","UNCODED",2,"TABLET","PRN","ORAL",4,"WEEK 2",14,"TREATMENT","2013-09-15","2011","",18,null,null],[877,"CDISCPILOT01","CM","01-701-1302",16,"3","METAMUCIL","UNCODED","","UNCODED",2,"TABLET","QD","ORAL",4,"WEEK 2",14,"TREATMENT","2013-09-15","2012-03-01","",18,-546,null],[878,"CDISCPILOT01","CM","01-701-1302",17,"5","NEO-SYNEPHRINE","UNCODED","","UNCODED",1,"TABLET","PRN","NASAL",4,"WEEK 2",14,"TREATMENT","2013-09-15","2013-09-01","2013-09-30",18,4,33],[879,"CDISCPILOT01","CM","01-701-1302",18,"6","PSEUDOEPHEDRINE HYDROCHLORIDE","UNCODED","","UNCODED",2,"TABLET","Q4H","ORAL",4,"WEEK 2",14,"TREATMENT","2013-09-15","2013-09-02","2013-09-30",18,5,33],[880,"CDISCPILOT01","CM","01-701-1302",19,"1","ADVIL","UNCODED","","UNCODED",2,"TABLET","PRN","ORAL",5,"WEEK 4",28,"TREATMENT","2013-09-24","2010","",27,null,null],[881,"CDISCPILOT01","CM","01-701-1302",20,"4","MULTIVITAMINS","UNCODED","PROPHYLAXIS OR NON-THERAPEUTIC USE","UNCODED",1,"TABLET","QD","ORAL",5,"WEEK 4",28,"TREATMENT","2013-09-24","2010","",27,null,null],[882,"CDISCPILOT01","CM","01-701-1302",21,"2","EXCEDRIN","UNCODED","","UNCODED",2,"TABLET","PRN","ORAL",5,"WEEK 4",28,"TREATMENT","2013-09-24","2011","",27,null,null],[883,"CDISCPILOT01","CM","01-701-1302",22,"3","METAMUCIL","UNCODED","","UNCODED",2,"TABLET","QD","ORAL",5,"WEEK 4",28,"TREATMENT","2013-09-24","2012-03-01","",27,-546,null],[884,"CDISCPILOT01","CM","01-701-1302",23,"5","NEO-SYNEPHRINE","UNCODED","","UNCODED",1,"TABLET","PRN","NASAL",5,"WEEK 4",28,"TREATMENT","2013-09-24","2013-09-01","2013-09-30",27,4,33],[885,"CDISCPILOT01","CM","01-701-1302",24,"6","PSEUDOEPHEDRINE HYDROCHLORIDE","UNCODED","","UNCODED",2,"TABLET","Q4H","ORAL",5,"WEEK 4",28,"TREATMENT","2013-09-24","2013-09-02","2013-09-30",27,5,33],[886,"CDISCPILOT01","CM","01-701-1302",25,"1","ADVIL","UNCODED","","UNCODED",2,"TABLET","PRN","ORAL",6,"AMBUL ECG REMOVAL",30,"TREATMENT","2013-09-26","2010","",29,null,null],[887,"CDISCPILOT01","CM","01-701-1302",26,"4","MULTIVITAMINS","UNCODED","PROPHYLAXIS OR NON-THERAPEUTIC USE","UNCODED",1,"TABLET","QD","ORAL",6,"AMBUL ECG REMOVAL",30,"TREATMENT","2013-09-26","2010","",29,null,null],[888,"CDISCPILOT01","CM","01-701-1302",27,"2","EXCEDRIN","UNCODED","","UNCODED",2,"TABLET","PRN","ORAL",6,"AMBUL ECG REMOVAL",30,"TREATMENT","2013-09-26","2011","",29,null,null],[889,"CDISCPILOT01","CM","01-701-1302",28,"3","METAMUCIL","UNCODED","","UNCODED",2,"TABLET","QD","ORAL",6,"AMBUL ECG REMOVAL",30,"TREATMENT","2013-09-26","2012-03-01","",29,-546,null],[890,"CDISCPILOT01","CM","01-701-1302",29,"5","NEO-SYNEPHRINE","UNCODED","","UNCODED",1,"TABLET","PRN","NASAL",6,"AMBUL ECG REMOVAL",30,"TREATMENT","2013-09-26","2013-09-01","2013-09-30",29,4,33],[891,"CDISCPILOT01","CM","01-701-1302",30,"6","PSEUDOEPHEDRINE HYDROCHLORIDE","UNCODED","","UNCODED",2,"TABLET","Q4H","ORAL",6,"AMBUL ECG REMOVAL",30,"TREATMENT","2013-09-26","2013-09-02","2013-09-30",29,5,33],[892,"CDISCPILOT01","CM","01-701-1302",31,"1","ADVIL","UNCODED","","UNCODED",2,"TABLET","PRN","ORAL",7,"WEEK 6",42,"TREATMENT","2013-10-08","2010","",41,null,null],[893,"CDISCPILOT01","CM","01-701-1302",32,"4","MULTIVITAMINS","UNCODED","PROPHYLAXIS OR NON-THERAPEUTIC USE","UNCODED",1,"TABLET","QD","ORAL",7,"WEEK 6",42,"TREATMENT","2013-10-08","2010","",41,null,null],[894,"CDISCPILOT01","CM","01-701-1302",33,"2","EXCEDRIN","UNCODED","","UNCODED",2,"TABLET","PRN","ORAL",7,"WEEK 6",42,"TREATMENT","2013-10-08","2011","",41,null,null],[895,"CDISCPILOT01","CM","01-701-1302",34,"3","METAMUCIL","UNCODED","","UNCODED",2,"TABLET","QD","ORAL",7,"WEEK 6",42,"TREATMENT","2013-10-08","2012-03-01","",41,-546,null],[896,"CDISCPILOT01","CM","01-701-1302",35,"5","NEO-SYNEPHRINE","UNCODED","","UNCODED",1,"TABLET","PRN","NASAL",7,"WEEK 6",42,"TREATMENT","2013-10-08","2013-09-01","2013-09-30",41,4,33],[897,"CDISCPILOT01","CM","01-701-1302",36,"6","PSEUDOEPHEDRINE HYDROCHLORIDE","UNCODED","","UNCODED",2,"TABLET","Q4H","ORAL",7,"WEEK 6",42,"TREATMENT","2013-10-08","2013-09-02","2013-09-30",41,5,33],[898,"CDISCPILOT01","CM","01-701-1302",37,"1","ADVIL","UNCODED","","UNCODED",2,"TABLET","PRN","ORAL",8,"WEEK 8",56,"TREATMENT","2013-10-22","2010","",55,null,null],[899,"CDISCPILOT01","CM","01-701-1302",38,"4","MULTIVITAMINS","UNCODED","PROPHYLAXIS OR NON-THERAPEUTIC USE","UNCODED",1,"TABLET","QD","ORAL",8,"WEEK 8",56,"TREATMENT","2013-10-22","2010","",55,null,null],[900,"CDISCPILOT01","CM","01-701-1302",39,"2","EXCEDRIN","UNCODED","","UNCODED",2,"TABLET","PRN","ORAL",8,"WEEK 8",56,"TREATMENT","2013-10-22","2011","",55,null,null],[901,"CDISCPILOT01","CM","01-701-1302",40,"3","METAMUCIL","UNCODED","","UNCODED",2,"TABLET","QD","ORAL",8,"WEEK 8",56,"TREATMENT","2013-10-22","2012-03-01","",55,-546,null],[902,"CDISCPILOT01","CM","01-701-1302",41,"1","ADVIL","UNCODED","","UNCODED",2,"TABLET","PRN","ORAL",9,"WEEK 12",84,"TREATMENT","2013-11-05","2010","",69,null,null],[903,"CDISCPILOT01","CM","01-701-1302",42,"4","MULTIVITAMINS","UNCODED","PROPHYLAXIS OR NON-THERAPEUTIC USE","UNCODED",1,"TABLET","QD","ORAL",9,"WEEK 12",84,"TREATMENT","2013-11-05","2010","",69,null,null],[904,"CDISCPILOT01","CM","01-701-1302",43,"2","EXCEDRIN","UNCODED","","UNCODED",2,"TABLET","PRN","ORAL",9,"WEEK 12",84,"TREATMENT","2013-11-05","2011","",69,null,null],[905,"CDISCPILOT01","CM","01-701-1302",44,"3","METAMUCIL","UNCODED","","UNCODED",2,"TABLET","QD","ORAL",9,"WEEK 12",84,"TREATMENT","2013-11-05","2012-03-01","",69,-546,null],[906,"CDISCPILOT01","CM","01-701-1302",45,"1","ADVIL","UNCODED","","UNCODED",2,"TABLET","PRN","ORAL",101,"AE FOLLOW-UP",null,"SCREENING","2013-12-16","2010","",110,null,null],[907,"CDISCPILOT01","CM","01-701-1302",46,"4","MULTIVITAMINS","UNCODED","PROPHYLAXIS OR NON-THERAPEUTIC USE","UNCODED",1,"TABLET","QD","ORAL",101,"AE FOLLOW-UP",null,"SCREENING","2013-12-16","2010","",110,null,null],[908,"CDISCPILOT01","CM","01-701-1302",47,"2","EXCEDRIN","UNCODED","","UNCODED",2,"TABLET","PRN","ORAL",101,"AE FOLLOW-UP",null,"SCREENING","2013-12-16","2011","",110,null,null],[909,"CDISCPILOT01","CM","01-701-1302",48,"3","METAMUCIL","UNCODED","","UNCODED",2,"TABLET","QD","ORAL",101,"AE FOLLOW-UP",null,"SCREENING","2013-12-16","2012-03-01","",110,-546,null],[910,"CDISCPILOT01","CM","01-701-1302",49,"1","ADVIL","UNCODED","","UNCODED",2,"TABLET","PRN","ORAL",201,"RETRIEVAL",168,"TREATMENT","2014-02-13","2010","",169,null,null],[911,"CDISCPILOT01","CM","01-701-1302",50,"4","MULTIVITAMINS","UNCODED","PROPHYLAXIS OR NON-THERAPEUTIC USE","UNCODED",1,"TABLET","QD","ORAL",201,"RETRIEVAL",168,"TREATMENT","2014-02-13","2010","",169,null,null],[912,"CDISCPILOT01","CM","01-701-1302",51,"2","EXCEDRIN","UNCODED","","UNCODED",2,"TABLET","PRN","ORAL",201,"RETRIEVAL",168,"TREATMENT","2014-02-13","2011","",169,null,null],[913,"CDISCPILOT01","CM","01-701-1302",52,"3","METAMUCIL","UNCODED","","UNCODED",2,"TABLET","QD","ORAL",201,"RETRIEVAL",168,"TREATMENT","2014-02-13","2012-03-01","",169,-546,null],[914,"CDISCPILOT01","CM","01-701-1317",1,"3","MULTIVITAMIN","UNCODED","PROPHYLAXIS OR NON-THERAPEUTIC USE","UNCODED",1,"TABLET","QD","ORAL",1,"SCREENING 1",-7,"SCREENING","2014-05-10","2009","",-12,null,null],[915,"CDISCPILOT01","CM","01-701-1317",2,"6","VITAMIN E","UNCODED","PROPHYLAXIS OR NON-THERAPEUTIC USE","UNCODED",400,"mg","QD","ORAL",1,"SCREENING 1",-7,"SCREENING","2014-05-10","2009","",-12,null,null],[916,"CDISCPILOT01","CM","01-701-1317",3,"5","TUMS","UNCODED","","UNCODED",1,"TABLET","PRN","ORAL",1,"SCREENING 1",-7,"SCREENING","2014-05-10","2012","",-12,null,null],[917,"CDISCPILOT01","CM","01-701-1317",4,"1","ASPIRIN","ACETYLSALICYLIC ACID","PROPHYLAXIS OR NON-THERAPEUTIC USE","NERVOUS SYSTEM",1,"TABLET","QD","ORAL",1,"SCREENING 1",-7,"SCREENING","2014-05-10","2013","",-12,null,null],[918,"CDISCPILOT01","CM","01-701-1317",5,"2","FOLIC ACID","UNCODED","PROPHYLAXIS OR NON-THERAPEUTIC USE","UNCODED",1,"TABLET","QD","ORAL",1,"SCREENING 1",-7,"SCREENING","2014-05-10","2013","",-12,null,null],[919,"CDISCPILOT01","CM","01-701-1317",6,"4","PSYLLIUM HYDROPHILIC MUCILLOID","UNCODED","PROPHYLAXIS OR NON-THERAPEUTIC USE","UNCODED",1,"TABLET","QD","ORAL",1,"SCREENING 1",-7,"SCREENING","2014-05-10","2014-04","",-12,null,null],[920,"CDISCPILOT01","CM","01-701-1317",7,"3","MULTIVITAMIN","UNCODED","PROPHYLAXIS OR NON-THERAPEUTIC USE","UNCODED",1,"TABLET","QD","ORAL",2,"SCREENING 2",-1,"SCREENING","2014-05-20","2009","",-2,null,null],[921,"CDISCPILOT01","CM","01-701-1317",8,"6","VITAMIN E","UNCODED","PROPHYLAXIS OR NON-THERAPEUTIC USE","UNCODED",400,"mg","QD","ORAL",2,"SCREENING 2",-1,"SCREENING","2014-05-20","2009","",-2,null,null],[922,"CDISCPILOT01","CM","01-701-1317",9,"5","TUMS","UNCODED","","UNCODED",1,"TABLET","PRN","ORAL",2,"SCREENING 2",-1,"SCREENING","2014-05-20","2012","",-2,null,null],[923,"CDISCPILOT01","CM","01-701-1317",10,"1","ASPIRIN","ACETYLSALICYLIC ACID","PROPHYLAXIS OR NON-THERAPEUTIC USE","NERVOUS SYSTEM",1,"TABLET","QD","ORAL",2,"SCREENING 2",-1,"SCREENING","2014-05-20","2013","",-2,null,null],[924,"CDISCPILOT01","CM","01-701-1317",11,"2","FOLIC ACID","UNCODED","PROPHYLAXIS OR NON-THERAPEUTIC USE","UNCODED",1,"TABLET","QD","ORAL",2,"SCREENING 2",-1,"SCREENING","2014-05-20","2013","",-2,null,null],[925,"CDISCPILOT01","CM","01-701-1317",12,"4","PSYLLIUM HYDROPHILIC MUCILLOID","UNCODED","PROPHYLAXIS OR NON-THERAPEUTIC USE","UNCODED",1,"TABLET","QD","ORAL",2,"SCREENING 2",-1,"SCREENING","2014-05-20","2014-04","",-2,null,null],[926,"CDISCPILOT01","CM","01-701-1317",13,"3","MULTIVITAMIN","UNCODED","PROPHYLAXIS OR NON-THERAPEUTIC USE","UNCODED",1,"TABLET","QD","ORAL",3,"BASELINE",1,"TREATMENT","2014-05-22","2009","",1,null,null],[927,"CDISCPILOT01","CM","01-701-1317",14,"6","VITAMIN E","UNCODED","PROPHYLAXIS OR NON-THERAPEUTIC USE","UNCODED",400,"mg","QD","ORAL",3,"BASELINE",1,"TREATMENT","2014-05-22","2009","",1,null,null],[928,"CDISCPILOT01","CM","01-701-1317",15,"5","TUMS","UNCODED","","UNCODED",1,"TABLET","PRN","ORAL",3,"BASELINE",1,"TREATMENT","2014-05-22","2012","",1,null,null],[929,"CDISCPILOT01","CM","01-701-1317",16,"1","ASPIRIN","ACETYLSALICYLIC ACID","PROPHYLAXIS OR NON-THERAPEUTIC USE","NERVOUS SYSTEM",1,"TABLET","QD","ORAL",3,"BASELINE",1,"TREATMENT","2014-05-22","2013","",1,null,null],[930,"CDISCPILOT01","CM","01-701-1317",17,"2","FOLIC ACID","UNCODED","PROPHYLAXIS OR NON-THERAPEUTIC USE","UNCODED",1,"TABLET","QD","ORAL",3,"BASELINE",1,"TREATMENT","2014-05-22","2013","",1,null,null],[931,"CDISCPILOT01","CM","01-701-1317",18,"4","PSYLLIUM HYDROPHILIC MUCILLOID","UNCODED","PROPHYLAXIS OR NON-THERAPEUTIC USE","UNCODED",1,"TABLET","QD","ORAL",3,"BASELINE",1,"TREATMENT","2014-05-22","2014-04","",1,null,null],[932,"CDISCPILOT01","CM","01-701-1317",19,"3","MULTIVITAMIN","UNCODED","PROPHYLAXIS OR NON-THERAPEUTIC USE","UNCODED",1,"TABLET","QD","ORAL",4,"WEEK 2",14,"TREATMENT","2014-06-05","2009","",15,null,null],[933,"CDISCPILOT01","CM","01-701-1317",20,"6","VITAMIN E","UNCODED","PROPHYLAXIS OR NON-THERAPEUTIC USE","UNCODED",400,"mg","QD","ORAL",4,"WEEK 2",14,"TREATMENT","2014-06-05","2009","",15,null,null],[934,"CDISCPILOT01","CM","01-701-1317",21,"5","TUMS","UNCODED","","UNCODED",1,"TABLET","PRN","ORAL",4,"WEEK 2",14,"TREATMENT","2014-06-05","2012","",15,null,null],[935,"CDISCPILOT01","CM","01-701-1317",22,"1","ASPIRIN","ACETYLSALICYLIC ACID","PROPHYLAXIS OR NON-THERAPEUTIC USE","NERVOUS SYSTEM",1,"TABLET","QD","ORAL",4,"WEEK 2",14,"TREATMENT","2014-06-05","2013","",15,null,null],[936,"CDISCPILOT01","CM","01-701-1317",23,"2","FOLIC ACID","UNCODED","PROPHYLAXIS OR NON-THERAPEUTIC USE","UNCODED",1,"TABLET","QD","ORAL",4,"WEEK 2",14,"TREATMENT","2014-06-05","2013","",15,null,null],[937,"CDISCPILOT01","CM","01-701-1317",24,"4","PSYLLIUM HYDROPHILIC MUCILLOID","UNCODED","PROPHYLAXIS OR NON-THERAPEUTIC USE","UNCODED",1,"TABLET","QD","ORAL",4,"WEEK 2",14,"TREATMENT","2014-06-05","2014-04","",15,null,null],[938,"CDISCPILOT01","CM","01-701-1317",25,"3","MULTIVITAMIN","UNCODED","PROPHYLAXIS OR NON-THERAPEUTIC USE","UNCODED",1,"TABLET","QD","ORAL",5,"WEEK 4",28,"TREATMENT","2014-06-19","2009","",29,null,null],[939,"CDISCPILOT01","CM","01-701-1317",26,"6","VITAMIN E","UNCODED","PROPHYLAXIS OR NON-THERAPEUTIC USE","UNCODED",400,"mg","QD","ORAL",5,"WEEK 4",28,"TREATMENT","2014-06-19","2009","",29,null,null],[940,"CDISCPILOT01","CM","01-701-1317",27,"5","TUMS","UNCODED","","UNCODED",1,"TABLET","PRN","ORAL",5,"WEEK 4",28,"TREATMENT","2014-06-19","2012","",29,null,null],[941,"CDISCPILOT01","CM","01-701-1317",28,"1","ASPIRIN","ACETYLSALICYLIC ACID","PROPHYLAXIS OR NON-THERAPEUTIC USE","NERVOUS SYSTEM",1,"TABLET","QD","ORAL",5,"WEEK 4",28,"TREATMENT","2014-06-19","2013","",29,null,null],[942,"CDISCPILOT01","CM","01-701-1317",29,"2","FOLIC ACID","UNCODED","PROPHYLAXIS OR NON-THERAPEUTIC USE","UNCODED",1,"TABLET","QD","ORAL",5,"WEEK 4",28,"TREATMENT","2014-06-19","2013","",29,null,null],[943,"CDISCPILOT01","CM","01-701-1317",30,"4","PSYLLIUM HYDROPHILIC MUCILLOID","UNCODED","PROPHYLAXIS OR NON-THERAPEUTIC USE","UNCODED",1,"TABLET","QD","ORAL",5,"WEEK 4",28,"TREATMENT","2014-06-19","2014-04","",29,null,null],[944,"CDISCPILOT01","CM","01-701-1317",31,"3","MULTIVITAMIN","UNCODED","PROPHYLAXIS OR NON-THERAPEUTIC USE","UNCODED",1,"TABLET","QD","ORAL",6,"AMBUL ECG REMOVAL",30,"TREATMENT","2014-06-21","2009","",31,null,null],[945,"CDISCPILOT01","CM","01-701-1317",32,"6","VITAMIN E","UNCODED","PROPHYLAXIS OR NON-THERAPEUTIC USE","UNCODED",400,"mg","QD","ORAL",6,"AMBUL ECG REMOVAL",30,"TREATMENT","2014-06-21","2009","",31,null,null],[946,"CDISCPILOT01","CM","01-701-1317",33,"5","TUMS","UNCODED","","UNCODED",1,"TABLET","PRN","ORAL",6,"AMBUL ECG REMOVAL",30,"TREATMENT","2014-06-21","2012","",31,null,null],[947,"CDISCPILOT01","CM","01-701-1317",34,"1","ASPIRIN","ACETYLSALICYLIC ACID","PROPHYLAXIS OR NON-THERAPEUTIC USE","NERVOUS SYSTEM",1,"TABLET","QD","ORAL",6,"AMBUL ECG REMOVAL",30,"TREATMENT","2014-06-21","2013","",31,null,null],[948,"CDISCPILOT01","CM","01-701-1317",35,"2","FOLIC ACID","UNCODED","PROPHYLAXIS OR NON-THERAPEUTIC USE","UNCODED",1,"TABLET","QD","ORAL",6,"AMBUL ECG REMOVAL",30,"TREATMENT","2014-06-21","2013","",31,null,null],[949,"CDISCPILOT01","CM","01-701-1317",36,"4","PSYLLIUM HYDROPHILIC MUCILLOID","UNCODED","PROPHYLAXIS OR NON-THERAPEUTIC USE","UNCODED",1,"TABLET","QD","ORAL",6,"AMBUL ECG REMOVAL",30,"TREATMENT","2014-06-21","2014-04","",31,null,null],[950,"CDISCPILOT01","CM","01-701-1317",37,"3","MULTIVITAMIN","UNCODED","PROPHYLAXIS OR NON-THERAPEUTIC USE","UNCODED",1,"TABLET","QD","ORAL",7,"WEEK 6",42,"TREATMENT","2014-07-03","2009","",43,null,null],[951,"CDISCPILOT01","CM","01-701-1317",38,"6","VITAMIN E","UNCODED","PROPHYLAXIS OR NON-THERAPEUTIC USE","UNCODED",400,"mg","QD","ORAL",7,"WEEK 6",42,"TREATMENT","2014-07-03","2009","",43,null,null],[952,"CDISCPILOT01","CM","01-701-1317",39,"5","TUMS","UNCODED","","UNCODED",1,"TABLET","PRN","ORAL",7,"WEEK 6",42,"TREATMENT","2014-07-03","2012","",43,null,null],[953,"CDISCPILOT01","CM","01-701-1317",40,"1","ASPIRIN","ACETYLSALICYLIC ACID","PROPHYLAXIS OR NON-THERAPEUTIC USE","NERVOUS SYSTEM",1,"TABLET","QD","ORAL",7,"WEEK 6",42,"TREATMENT","2014-07-03","2013","",43,null,null],[954,"CDISCPILOT01","CM","01-701-1317",41,"2","FOLIC ACID","UNCODED","PROPHYLAXIS OR NON-THERAPEUTIC USE","UNCODED",1,"TABLET","QD","ORAL",7,"WEEK 6",42,"TREATMENT","2014-07-03","2013","",43,null,null],[955,"CDISCPILOT01","CM","01-701-1317",42,"4","PSYLLIUM HYDROPHILIC MUCILLOID","UNCODED","PROPHYLAXIS OR NON-THERAPEUTIC USE","UNCODED",1,"TABLET","QD","ORAL",7,"WEEK 6",42,"TREATMENT","2014-07-03","2014-04","",43,null,null],[956,"CDISCPILOT01","CM","01-701-1317",43,"7","HYDROCORTISONE","HYDROCORTISONE","","SYSTEMIC HORMONAL PREPARATIONS, EXCL.",1,"TABLET","PRN","TOPICAL",7,"WEEK 6",42,"TREATMENT","2014-07-03","2014-07-03","",43,43,null],[957,"CDISCPILOT01","CM","01-701-1317",44,"3","MULTIVITAMIN","UNCODED","PROPHYLAXIS OR NON-THERAPEUTIC USE","UNCODED",1,"TABLET","QD","ORAL",8,"WEEK 8",56,"TREATMENT","2014-07-22","2009","",62,null,null],[958,"CDISCPILOT01","CM","01-701-1317",45,"6","VITAMIN E","UNCODED","PROPHYLAXIS OR NON-THERAPEUTIC USE","UNCODED",400,"mg","QD","ORAL",8,"WEEK 8",56,"TREATMENT","2014-07-22","2009","",62,null,null],[959,"CDISCPILOT01","CM","01-701-1317",46,"5","TUMS","UNCODED","","UNCODED",1,"TABLET","PRN","ORAL",8,"WEEK 8",56,"TREATMENT","2014-07-22","2012","",62,null,null],[960,"CDISCPILOT01","CM","01-701-1317",47,"1","ASPIRIN","ACETYLSALICYLIC ACID","PROPHYLAXIS OR NON-THERAPEUTIC USE","NERVOUS SYSTEM",1,"TABLET","QD","ORAL",8,"WEEK 8",56,"TREATMENT","2014-07-22","2013","",62,null,null],[961,"CDISCPILOT01","CM","01-701-1317",48,"2","FOLIC ACID","UNCODED","PROPHYLAXIS OR NON-THERAPEUTIC USE","UNCODED",1,"TABLET","QD","ORAL",8,"WEEK 8",56,"TREATMENT","2014-07-22","2013","",62,null,null],[962,"CDISCPILOT01","CM","01-701-1317",49,"4","PSYLLIUM HYDROPHILIC MUCILLOID","UNCODED","PROPHYLAXIS OR NON-THERAPEUTIC USE","UNCODED",1,"TABLET","QD","ORAL",8,"WEEK 8",56,"TREATMENT","2014-07-22","2014-04","",62,null,null],[963,"CDISCPILOT01","CM","01-701-1317",50,"7","HYDROCORTISONE","HYDROCORTISONE","","SYSTEMIC HORMONAL PREPARATIONS, EXCL.",1,"TABLET","PRN","TOPICAL",8,"WEEK 8",56,"TREATMENT","2014-07-22","2014-07-03","",62,43,null],[964,"CDISCPILOT01","CM","01-701-1317",51,"3","MULTIVITAMIN","UNCODED","PROPHYLAXIS OR NON-THERAPEUTIC USE","UNCODED",1,"TABLET","QD","ORAL",9,"WEEK 12",84,"TREATMENT","2014-08-15","2009","",86,null,null],[965,"CDISCPILOT01","CM","01-701-1317",52,"6","VITAMIN E","UNCODED","PROPHYLAXIS OR NON-THERAPEUTIC USE","UNCODED",400,"mg","QD","ORAL",9,"WEEK 12",84,"TREATMENT","2014-08-15","2009","",86,null,null],[966,"CDISCPILOT01","CM","01-701-1317",53,"5","TUMS","UNCODED","","UNCODED",1,"TABLET","PRN","ORAL",9,"WEEK 12",84,"TREATMENT","2014-08-15","2012","",86,null,null],[967,"CDISCPILOT01","CM","01-701-1317",54,"1","ASPIRIN","ACETYLSALICYLIC ACID","PROPHYLAXIS OR NON-THERAPEUTIC USE","NERVOUS SYSTEM",1,"TABLET","QD","ORAL",9,"WEEK 12",84,"TREATMENT","2014-08-15","2013","",86,null,null],[968,"CDISCPILOT01","CM","01-701-1317",55,"2","FOLIC ACID","UNCODED","PROPHYLAXIS OR NON-THERAPEUTIC USE","UNCODED",1,"TABLET","QD","ORAL",9,"WEEK 12",84,"TREATMENT","2014-08-15","2013","",86,null,null],[969,"CDISCPILOT01","CM","01-701-1317",56,"4","PSYLLIUM HYDROPHILIC MUCILLOID","UNCODED","PROPHYLAXIS OR NON-THERAPEUTIC USE","UNCODED",1,"TABLET","QD","ORAL",9,"WEEK 12",84,"TREATMENT","2014-08-15","2014-04","",86,null,null],[970,"CDISCPILOT01","CM","01-701-1317",57,"7","HYDROCORTISONE","HYDROCORTISONE","","SYSTEMIC HORMONAL PREPARATIONS, EXCL.",1,"TABLET","PRN","TOPICAL",9,"WEEK 12",84,"TREATMENT","2014-08-15","2014-07-03","",86,43,null],[971,"CDISCPILOT01","CM","01-701-1317",58,"3","MULTIVITAMIN","UNCODED","PROPHYLAXIS OR NON-THERAPEUTIC USE","UNCODED",1,"TABLET","QD","ORAL",10,"WEEK 16",112,"TREATMENT","2014-09-11","2009","",113,null,null],[972,"CDISCPILOT01","CM","01-701-1317",59,"6","VITAMIN E","UNCODED","PROPHYLAXIS OR NON-THERAPEUTIC USE","UNCODED",400,"mg","QD","ORAL",10,"WEEK 16",112,"TREATMENT","2014-09-11","2009","",113,null,null],[973,"CDISCPILOT01","CM","01-701-1317",60,"5","TUMS","UNCODED","","UNCODED",1,"TABLET","PRN","ORAL",10,"WEEK 16",112,"TREATMENT","2014-09-11","2012","",113,null,null],[974,"CDISCPILOT01","CM","01-701-1317",61,"1","ASPIRIN","ACETYLSALICYLIC ACID","PROPHYLAXIS OR NON-THERAPEUTIC USE","NERVOUS SYSTEM",1,"TABLET","QD","ORAL",10,"WEEK 16",112,"TREATMENT","2014-09-11","2013","",113,null,null],[975,"CDISCPILOT01","CM","01-701-1317",62,"2","FOLIC ACID","UNCODED","PROPHYLAXIS OR NON-THERAPEUTIC USE","UNCODED",1,"TABLET","QD","ORAL",10,"WEEK 16",112,"TREATMENT","2014-09-11","2013","",113,null,null],[976,"CDISCPILOT01","CM","01-701-1317",63,"4","PSYLLIUM HYDROPHILIC MUCILLOID","UNCODED","PROPHYLAXIS OR NON-THERAPEUTIC USE","UNCODED",1,"TABLET","QD","ORAL",10,"WEEK 16",112,"TREATMENT","2014-09-11","2014-04","",113,null,null],[977,"CDISCPILOT01","CM","01-701-1317",64,"7","HYDROCORTISONE","HYDROCORTISONE","","SYSTEMIC HORMONAL PREPARATIONS, EXCL.",1,"TABLET","PRN","TOPICAL",10,"WEEK 16",112,"TREATMENT","2014-09-11","2014-07-03","",113,43,null],[978,"CDISCPILOT01","CM","01-701-1317",65,"3","MULTIVITAMIN","UNCODED","PROPHYLAXIS OR NON-THERAPEUTIC USE","UNCODED",1,"TABLET","QD","ORAL",11,"WEEK 20",140,"TREATMENT","2014-10-09","2009","",141,null,null],[979,"CDISCPILOT01","CM","01-701-1317",66,"6","VITAMIN E","UNCODED","PROPHYLAXIS OR NON-THERAPEUTIC USE","UNCODED",400,"mg","QD","ORAL",11,"WEEK 20",140,"TREATMENT","2014-10-09","2009","",141,null,null],[980,"CDISCPILOT01","CM","01-701-1317",67,"5","TUMS","UNCODED","","UNCODED",1,"TABLET","PRN","ORAL",11,"WEEK 20",140,"TREATMENT","2014-10-09","2012","",141,null,null],[981,"CDISCPILOT01","CM","01-701-1317",68,"1","ASPIRIN","ACETYLSALICYLIC ACID","PROPHYLAXIS OR NON-THERAPEUTIC USE","NERVOUS SYSTEM",1,"TABLET","QD","ORAL",11,"WEEK 20",140,"TREATMENT","2014-10-09","2013","",141,null,null],[982,"CDISCPILOT01","CM","01-701-1317",69,"2","FOLIC ACID","UNCODED","PROPHYLAXIS OR NON-THERAPEUTIC USE","UNCODED",1,"TABLET","QD","ORAL",11,"WEEK 20",140,"TREATMENT","2014-10-09","2013","",141,null,null],[983,"CDISCPILOT01","CM","01-701-1317",70,"4","PSYLLIUM HYDROPHILIC MUCILLOID","UNCODED","PROPHYLAXIS OR NON-THERAPEUTIC USE","UNCODED",1,"TABLET","QD","ORAL",11,"WEEK 20",140,"TREATMENT","2014-10-09","2014-04","",141,null,null],[984,"CDISCPILOT01","CM","01-701-1317",71,"7","HYDROCORTISONE","HYDROCORTISONE","","SYSTEMIC HORMONAL PREPARATIONS, EXCL.",1,"TABLET","PRN","TOPICAL",11,"WEEK 20",140,"TREATMENT","2014-10-09","2014-07-03","",141,43,null],[985,"CDISCPILOT01","CM","01-701-1317",72,"3","MULTIVITAMIN","UNCODED","PROPHYLAXIS OR NON-THERAPEUTIC USE","UNCODED",1,"TABLET","QD","ORAL",12,"WEEK 24",168,"TREATMENT","2014-11-06","2009","",169,null,null],[986,"CDISCPILOT01","CM","01-701-1317",73,"6","VITAMIN E","UNCODED","PROPHYLAXIS OR NON-THERAPEUTIC USE","UNCODED",400,"mg","QD","ORAL",12,"WEEK 24",168,"TREATMENT","2014-11-06","2009","",169,null,null],[987,"CDISCPILOT01","CM","01-701-1317",74,"5","TUMS","UNCODED","","UNCODED",1,"TABLET","PRN","ORAL",12,"WEEK 24",168,"TREATMENT","2014-11-06","2012","",169,null,null],[988,"CDISCPILOT01","CM","01-701-1317",75,"1","ASPIRIN","ACETYLSALICYLIC ACID","PROPHYLAXIS OR NON-THERAPEUTIC USE","NERVOUS SYSTEM",1,"TABLET","QD","ORAL",12,"WEEK 24",168,"TREATMENT","2014-11-06","2013","",169,null,null],[989,"CDISCPILOT01","CM","01-701-1317",76,"2","FOLIC ACID","UNCODED","PROPHYLAXIS OR NON-THERAPEUTIC USE","UNCODED",1,"TABLET","QD","ORAL",12,"WEEK 24",168,"TREATMENT","2014-11-06","2013","",169,null,null],[990,"CDISCPILOT01","CM","01-701-1317",77,"4","PSYLLIUM HYDROPHILIC MUCILLOID","UNCODED","PROPHYLAXIS OR NON-THERAPEUTIC USE","UNCODED",1,"TABLET","QD","ORAL",12,"WEEK 24",168,"TREATMENT","2014-11-06","2014-04","",169,null,null],[991,"CDISCPILOT01","CM","01-701-1317",78,"7","HYDROCORTISONE","HYDROCORTISONE","","SYSTEMIC HORMONAL PREPARATIONS, EXCL.",1,"TABLET","PRN","TOPICAL",12,"WEEK 24",168,"TREATMENT","2014-11-06","2014-07-03","",169,43,null],[992,"CDISCPILOT01","CM","01-701-1317",79,"3","MULTIVITAMIN","UNCODED","PROPHYLAXIS OR NON-THERAPEUTIC USE","UNCODED",1,"TABLET","QD","ORAL",13,"WEEK 26",182,"TREATMENT","2014-11-20","2009","",183,null,null],[993,"CDISCPILOT01","CM","01-701-1317",80,"6","VITAMIN E","UNCODED","PROPHYLAXIS OR NON-THERAPEUTIC USE","UNCODED",400,"mg","QD","ORAL",13,"WEEK 26",182,"TREATMENT","2014-11-20","2009","",183,null,null],[994,"CDISCPILOT01","CM","01-701-1317",81,"5","TUMS","UNCODED","","UNCODED",1,"TABLET","PRN","ORAL",13,"WEEK 26",182,"TREATMENT","2014-11-20","2012","",183,null,null],[995,"CDISCPILOT01","CM","01-701-1317",82,"1","ASPIRIN","ACETYLSALICYLIC ACID","PROPHYLAXIS OR NON-THERAPEUTIC USE","NERVOUS SYSTEM",1,"TABLET","QD","ORAL",13,"WEEK 26",182,"TREATMENT","2014-11-20","2013","",183,null,null],[996,"CDISCPILOT01","CM","01-701-1317",83,"2","FOLIC ACID","UNCODED","PROPHYLAXIS OR NON-THERAPEUTIC USE","UNCODED",1,"TABLET","QD","ORAL",13,"WEEK 26",182,"TREATMENT","2014-11-20","2013","",183,null,null],[997,"CDISCPILOT01","CM","01-701-1317",84,"4","PSYLLIUM HYDROPHILIC MUCILLOID","UNCODED","PROPHYLAXIS OR NON-THERAPEUTIC USE","UNCODED",1,"TABLET","QD","ORAL",13,"WEEK 26",182,"TREATMENT","2014-11-20","2014-04","",183,null,null],[998,"CDISCPILOT01","CM","01-701-1317",85,"7","HYDROCORTISONE","HYDROCORTISONE","","SYSTEMIC HORMONAL PREPARATIONS, EXCL.",1,"TABLET","PRN","TOPICAL",13,"WEEK 26",182,"TREATMENT","2014-11-20","2014-07-03","",183,43,null],[999,"CDISCPILOT01","CM","01-701-1324",1,"1","HYDROCORTISONE","HYDROCORTISONE","","SYSTEMIC HORMONAL PREPARATIONS, EXCL.",1,"TABLET","QD","TOPICAL",10,"WEEK 16",112,"TREATMENT","2013-01-22","2012-12-26","2012-12-30",113,86,90],[1000,"CDISCPILOT01","CM","01-701-1324",2,"2","HYDROCORTISONE","HYDROCORTISONE","","SYSTEMIC HORMONAL PREPARATIONS, EXCL.",1,"TABLET","QD","TOPICAL",10,"WEEK 16",112,"TREATMENT","2013-01-22","2013-01-11","2013-01-15",113,102,106],[1001,"CDISCPILOT01","CM","01-701-1324",3,"3","HYDROCORTISONE","HYDROCORTISONE","","SYSTEMIC HORMONAL PREPARATIONS, EXCL.",1,"TABLET","PRN","TOPICAL",12,"WEEK 24",168,"TREATMENT","2013-03-19","2013-02-21","",169,143,null],[1002,"CDISCPILOT01","CM","01-701-1324",4,"3","HYDROCORTISONE","HYDROCORTISONE","","SYSTEMIC HORMONAL PREPARATIONS, EXCL.",1,"TABLET","PRN","TOPICAL",13,"WEEK 26",182,"TREATMENT","2013-04-02","2013-02-21","",183,143,null],[1003,"CDISCPILOT01","CM","01-701-1341",1,"1","MULTIVITAMIN","UNCODED","PROPHYLAXIS OR NON-THERAPEUTIC USE","UNCODED",null,"TABLET","QD","ORAL",1,"SCREENING 1",-7,"SCREENING","2012-12-22","1971","",-14,null,null],[1004,"CDISCPILOT01","CM","01-701-1341",2,"1","MULTIVITAMIN","UNCODED","PROPHYLAXIS OR NON-THERAPEUTIC USE","UNCODED",null,"TABLET","QD","ORAL",2,"SCREENING 2",-1,"SCREENING","2013-01-03","1971","",-2,null,null],[1005,"CDISCPILOT01","CM","01-701-1341",3,"1","MULTIVITAMIN","UNCODED","PROPHYLAXIS OR NON-THERAPEUTIC USE","UNCODED",null,"TABLET","QD","ORAL",3,"BASELINE",1,"TREATMENT","2013-01-05","1971","",1,null,null],[1006,"CDISCPILOT01","CM","01-701-1341",4,"1","MULTIVITAMIN","UNCODED","PROPHYLAXIS OR NON-THERAPEUTIC USE","UNCODED",null,"TABLET","QD","ORAL",4,"WEEK 2",14,"TREATMENT","2013-01-18","1971","",14,null,null],[1007,"CDISCPILOT01","CM","01-701-1341",5,"1","MULTIVITAMIN","UNCODED","PROPHYLAXIS OR NON-THERAPEUTIC USE","UNCODED",null,"TABLET","QD","ORAL",5,"WEEK 4",28,"TREATMENT","2013-02-07","1971","",34,null,null],[1008,"CDISCPILOT01","CM","01-701-1341",6,"2","HYDROCORTISONE","HYDROCORTISONE","","SYSTEMIC HORMONAL PREPARATIONS, EXCL.",1,"TABLET","PRN","TOPICAL",5,"WEEK 4",28,"TREATMENT","2013-02-07","2013-01-26","2013-01-30",34,22,26],[1009,"CDISCPILOT01","CM","01-701-1341",7,"1","MULTIVITAMIN","UNCODED","PROPHYLAXIS OR NON-THERAPEUTIC USE","UNCODED",null,"TABLET","QD","ORAL",101,"AE FOLLOW-UP",null,"SCREENING","2013-02-21","1971","",48,null,null],[1010,"CDISCPILOT01","CM","01-701-1345",1,"1","VITAMIN C","UNCODED","PROPHYLAXIS OR NON-THERAPEUTIC USE","UNCODED",500,"mg","QD","ORAL",1,"SCREENING 1",-7,"SCREENING","2013-10-01","1983","",-7,null,null],[1011,"CDISCPILOT01","CM","01-701-1345",2,"2","VITAMIN E","UNCODED","PROPHYLAXIS OR NON-THERAPEUTIC USE","UNCODED",400,"mg","QD","ORAL",1,"SCREENING 1",-7,"SCREENING","2013-10-01","1983","",-7,null,null],[1012,"CDISCPILOT01","CM","01-701-1345",3,"1","VITAMIN C","UNCODED","PROPHYLAXIS OR NON-THERAPEUTIC USE","UNCODED",500,"mg","QD","ORAL",2,"SCREENING 2",-1,"SCREENING","2013-10-06","1983","",-2,null,null],[1013,"CDISCPILOT01","CM","01-701-1345",4,"2","VITAMIN E","UNCODED","PROPHYLAXIS OR NON-THERAPEUTIC USE","UNCODED",400,"mg","QD","ORAL",2,"SCREENING 2",-1,"SCREENING","2013-10-06","1983","",-2,null,null],[1014,"CDISCPILOT01","CM","01-701-1345",5,"1","VITAMIN C","UNCODED","PROPHYLAXIS OR NON-THERAPEUTIC USE","UNCODED",500,"mg","QD","ORAL",3,"BASELINE",1,"TREATMENT","2013-10-08","1983","",1,null,null],[1015,"CDISCPILOT01","CM","01-701-1345",6,"2","VITAMIN E","UNCODED","PROPHYLAXIS OR NON-THERAPEUTIC USE","UNCODED",400,"mg","QD","ORAL",3,"BASELINE",1,"TREATMENT","2013-10-08","1983","",1,null,null],[