{
  "clinicalData": {
    "studyOID": "UpdatedCDISCPILOT.CDISC SDTM.3.2",
    "metaDataVersionOID": "MDV.UpdatedCDISCPILOT.CDISC SDTM.3.2",
    "itemGroupData": {
      "IG.LBUR": {
        "records": 4913,
        "name": "LBUR",
        "label": "Laboratory Tests Results",
        "items": [
          {
            "OID": "ITEMGROUPDATASEQ",
            "name": "ITEMGROUPDATASEQ",
            "label": "Record identifier",
            "type": "integer"
          },
          {
            "OID": "IT.LBUR.STUDYID",
            "name": "STUDYID",
            "label": "Study Identifier",
            "type": "string",
            "length": 12
          },
          {
            "OID": "IT.LBUR.DOMAIN",
            "name": "DOMAIN",
            "label": "Domain Abbreviation",
            "type": "string",
            "length": 2
          },
          {
            "OID": "IT.LBUR.USUBJID",
            "name": "USUBJID",
            "label": "Unique Subject Identifier",
            "type": "string",
            "length": 11
          },
          {
            "OID": "IT.LBUR.LBSEQ",
            "name": "LBSEQ",
            "label": "Sequence Number",
            "type": "integer",
            "length": 8
          },
          {
            "OID": "IT.LBUR.LBTESTCD",
            "name": "LBTESTCD",
            "label": "Lab Test or Examination Short Name",
            "type": "string",
            "length": 7
          },
          {
            "OID": "IT.LBUR.LBTEST",
            "name": "LBTEST",
            "label": "Lab Test or Examination Name",
            "type": "string",
            "length": 200
          },
          {
            "OID": "IT.LBUR.LBCAT",
            "name": "LBCAT",
            "label": "Category for Lab Test",
            "type": "string",
            "length": 10
          },
          {
            "OID": "IT.LBUR.LBORRES",
            "name": "LBORRES",
            "label": "Result or Finding in Original Units",
            "type": "string",
            "length": 5
          },
          {
            "OID": "IT.LBUR.LBORRESU",
            "name": "LBORRESU",
            "label": "Original Units",
            "type": "string",
            "length": 8
          },
          {
            "OID": "IT.LBUR.LBORNRLO",
            "name": "LBORNRLO",
            "label": "Reference Range Lower Limit in Orig Unit",
            "type": "string",
            "length": 5
          },
          {
            "OID": "IT.LBUR.LBORNRHI",
            "name": "LBORNRHI",
            "label": "Reference Range Upper Limit in Orig Unit",
            "type": "string",
            "length": 7
          },
          {
            "OID": "IT.LBUR.LBSTRESC",
            "name": "LBSTRESC",
            "label": "Character Result/Finding in Std Format",
            "type": "string",
            "length": 8
          },
          {
            "OID": "IT.LBUR.LBSTRESN",
            "name": "LBSTRESN",
            "label": "Numeric Result/Finding in Standard Units",
            "type": "integer",
            "length": 8
          },
          {
            "OID": "IT.LBUR.LBSTRESU",
            "name": "LBSTRESU",
            "label": "Standard Units",
            "type": "string",
            "length": 8
          },
          {
            "OID": "IT.LBUR.LBSTNRLO",
            "name": "LBSTNRLO",
            "label": "Reference Range Lower Limit-Std Units",
            "type": "integer",
            "length": 8
          },
          {
            "OID": "IT.LBUR.LBSTNRHI",
            "name": "LBSTNRHI",
            "label": "Reference Range Upper Limit-Std Units",
            "type": "integer",
            "length": 8
          },
          {
            "OID": "IT.LBUR.LBNRIND",
            "name": "LBNRIND",
            "label": "Reference Range Indicator",
            "type": "string",
            "length": 200
          },
          {
            "OID": "IT.LBUR.LBBLFL",
            "name": "LBBLFL",
            "label": "Baseline Flag",
            "type": "string",
            "length": 1
          },
          {
            "OID": "IT.LBUR.VISITNUM",
            "name": "VISITNUM",
            "label": "Visit Number",
            "type": "float",
            "length": 8
          },
          {
            "OID": "IT.LBUR.VISIT",
            "name": "VISIT",
            "label": "Visit Name",
            "type": "string",
            "length": 19
          },
          {
            "OID": "IT.LBUR.VISITDY",
            "name": "VISITDY",
            "label": "Planned Study Day of Visit",
            "type": "integer",
            "length": 8
          },
          {
            "OID": "IT.LBUR.EPOCH",
            "name": "EPOCH",
            "label": "Epoch",
            "type": "string",
            "length": 9
          },
          {
            "OID": "IT.LBUR.LBDTC",
            "name": "LBDTC",
            "label": "Date/Time of Specimen Collection",
            "type": "string",
            "length": 16
          },
          {
            "OID": "IT.LBUR.LBDY",
            "name": "LBDY",
            "label": "Study Day of Specimen Collection",
            "type": "integer",
            "length": 8
          }
        ],
        "itemData": [
          [
            1,
            "CDISCPILOT01",
            "LB",
            "01-701-1015",
            13,
            "COLOR",
            "Color",
            "URINALYSIS",
            "N",
            "",
            "",
            "",
            "N",
            null,
            "",
            null,
            null,
            "NORMAL",
            "Y",
            1,
            "SCREENING 1",
            -7,
            "SCREENING",
            "2013-12-26T14:45",
            -7
          ],
          [
            2,
            "CDISCPILOT01",
            "LB",
            "01-701-1015",
            50,
            "COLOR",
            "Color",
            "URINALYSIS",
            "N",
            "",
            "",
            "",
            "N",
            null,
            "",
            null,
            null,
            "NORMAL",
            "",
            4,
            "WEEK 2",
            14,
            "TREATMENT",
            "2014-01-16T13:17",
            15
          ],
          [
            3,
            "CDISCPILOT01",
            "LB",
            "01-701-1015",
            175,
            "COLOR",
            "Color",
            "URINALYSIS",
            "N",
            "",
            "",
            "",
            "N",
            null,
            "",
            null,
            null,
            "NORMAL",
            "",
            9,
            "WEEK 12",
            84,
            "TREATMENT",
            "2014-03-26T15:15",
            84
          ],
          [
            4,
            "CDISCPILOT01",
            "LB",
            "01-701-1015",
            270,
            "COLOR",
            "Color",
            "URINALYSIS",
            "N",
            "",
            "",
            "",
            "N",
            null,
            "",
            null,
            null,
            "NORMAL",
            "",
            12,
            "WEEK 24",
            168,
            "TREATMENT",
            "2014-06-18T13:00",
            168
          ],
          [
            5,
            "CDISCPILOT01",
            "LB",
            "01-701-1015",
            21,
            "KETONES",
            "Ketones",
            "URINALYSIS",
            "0",
            "",
            "",
            "",
            "0",
            0,
            "",
            null,
            null,
            "NORMAL",
            "Y",
            1,
            "SCREENING 1",
            -7,
            "SCREENING",
            "2013-12-26T14:45",
            -7
          ],
          [
            6,
            "CDISCPILOT01",
            "LB",
            "01-701-1015",
            58,
            "KETONES",
            "Ketones",
            "URINALYSIS",
            "0",
            "",
            "",
            "",
            "0",
            0,
            "",
            null,
            null,
            "NORMAL",
            "",
            4,
            "WEEK 2",
            14,
            "TREATMENT",
            "2014-01-16T13:17",
            15
          ],
          [
            7,
            "CDISCPILOT01",
            "LB",
            "01-701-1015",
            183,
            "KETONES",
            "Ketones",
            "URINALYSIS",
            "0",
            "",
            "",
            "",
            "0",
            0,
            "",
            null,
            null,
            "NORMAL",
            "",
            9,
            "WEEK 12",
            84,
            "TREATMENT",
            "2014-03-26T15:15",
            84
          ],
          [
            8,
            "CDISCPILOT01",
            "LB",
            "01-701-1015",
            278,
            "KETONES",
            "Ketones",
            "URINALYSIS",
            "0",
            "",
            "",
            "",
            "0",
            0,
            "",
            null,
            null,
            "NORMAL",
            "",
            12,
            "WEEK 24",
            168,
            "TREATMENT",
            "2014-06-18T13:00",
            168
          ],
          [
            9,
            "CDISCPILOT01",
            "LB",
            "01-701-1015",
            28,
            "PH",
            "pH",
            "URINALYSIS",
            "5.0",
            "",
            "5",
            "8",
            "5",
            5,
            "",
            5,
            8,
            "NORMAL",
            "Y",
            1,
            "SCREENING 1",
            -7,
            "SCREENING",
            "2013-12-26T14:45",
            -7
          ],
          [
            10,
            "CDISCPILOT01",
            "LB",
            "01-701-1015",
            65,
            "PH",
            "pH",
            "URINALYSIS",
            "5.0",
            "",
            "5",
            "8",
            "5",
            5,
            "",
            5,
            8,
            "NORMAL",
            "",
            4,
            "WEEK 2",
            14,
            "TREATMENT",
            "2014-01-16T13:17",
            15
          ],
          [
            11,
            "CDISCPILOT01",
            "LB",
            "01-701-1015",
            190,
            "PH",
            "pH",
            "URINALYSIS",
            "5.0",
            "",
            "5",
            "8",
            "5",
            5,
            "",
            5,
            8,
            "NORMAL",
            "",
            9,
            "WEEK 12",
            84,
            "TREATMENT",
            "2014-03-26T15:15",
            84
          ],
          [
            12,
            "CDISCPILOT01",
            "LB",
            "01-701-1015",
            285,
            "PH",
            "pH",
            "URINALYSIS",
            "5.0",
            "",
            "5",
            "8",
            "5",
            5,
            "",
            5,
            8,
            "NORMAL",
            "",
            12,
            "WEEK 24",
            168,
            "TREATMENT",
            "2014-06-18T13:00",
            168
          ],
          [
            13,
            "CDISCPILOT01",
            "LB",
            "01-701-1015",
            33,
            "SPGRAV",
            "Specific Gravity",
            "URINALYSIS",
            "1.013",
            "",
            "1.006",
            "1.03",
            "1.013",
            1.013,
            "",
            1.006,
            1.03,
            "NORMAL",
            "Y",
            1,
            "SCREENING 1",
            -7,
            "SCREENING",
            "2013-12-26T14:45",
            -7
          ],
          [
            14,
            "CDISCPILOT01",
            "LB",
            "01-701-1015",
            70,
            "SPGRAV",
            "Specific Gravity",
            "URINALYSIS",
            "1.007",
            "",
            "1.006",
            "1.03",
            "1.007",
            1.007,
            "",
            1.006,
            1.03,
            "NORMAL",
            "",
            4,
            "WEEK 2",
            14,
            "TREATMENT",
            "2014-01-16T13:17",
            15
          ],
          [
            15,
            "CDISCPILOT01",
            "LB",
            "01-701-1015",
            195,
            "SPGRAV",
            "Specific Gravity",
            "URINALYSIS",
            "1.011",
            "",
            "1.006",
            "1.03",
            "1.011",
            1.011,
            "",
            1.006,
            1.03,
            "NORMAL",
            "",
            9,
            "WEEK 12",
            84,
            "TREATMENT",
            "2014-03-26T15:15",
            84
          ],
          [
            16,
            "CDISCPILOT01",
            "LB",
            "01-701-1015",
            290,
            "SPGRAV",
            "Specific Gravity",
            "URINALYSIS",
            "1.005",
            "",
            "1.006",
            "1.03",
            "1.005",
            1.005,
            "",
            1.006,
            1.03,
            "LOW",
            "",
            12,
            "WEEK 24",
            168,
            "TREATMENT",
            "2014-06-18T13:00",
            168
          ],
          [
            17,
            "CDISCPILOT01",
            "LB",
            "01-701-1015",
            34,
            "TSH",
            "Thyrotropin",
            "OTHER",
            "1.68",
            "mIU/L",
            "0.32",
            "5",
            "1.68",
            1.68,
            "mU/L",
            0.32,
            5,
            "NORMAL",
            "Y",
            1,
            "SCREENING 1",
            -7,
            "SCREENING",
            "2013-12-26T14:45",
            -7
          ],
          [
            18,
            "CDISCPILOT01",
            "LB",
            "01-701-1015",
            36,
            "UROBIL",
            "Urobilinogen",
            "URINALYSIS",
            "0",
            "",
            "",
            "",
            "0",
            0,
            "",
            null,
            null,
            "NORMAL",
            "Y",
            1,
            "SCREENING 1",
            -7,
            "SCREENING",
            "2013-12-26T14:45",
            -7
          ],
          [
            19,
            "CDISCPILOT01",
            "LB",
            "01-701-1015",
            72,
            "UROBIL",
            "Urobilinogen",
            "URINALYSIS",
            "0",
            "",
            "",
            "",
            "0",
            0,
            "",
            null,
            null,
            "NORMAL",
            "",
            4,
            "WEEK 2",
            14,
            "TREATMENT",
            "2014-01-16T13:17",
            15
          ],
          [
            20,
            "CDISCPILOT01",
            "LB",
            "01-701-1015",
            197,
            "UROBIL",
            "Urobilinogen",
            "URINALYSIS",
            "0",
            "",
            "",
            "",
            "0",
            0,
            "",
            null,
            null,
            "NORMAL",
            "",
            9,
            "WEEK 12",
            84,
            "TREATMENT",
            "2014-03-26T15:15",
            84
          ],
          [
            21,
            "CDISCPILOT01",
            "LB",
            "01-701-1015",
            292,
            "UROBIL",
            "Urobilinogen",
            "URINALYSIS",
            "0",
            "",
            "",
            "",
            "0",
            0,
            "",
            null,
            null,
            "NORMAL",
            "",
            12,
            "WEEK 24",
            168,
            "TREATMENT",
            "2014-06-18T13:00",
            168
          ],
          [
            22,
            "CDISCPILOT01",
            "LB",
            "01-701-1015",
            37,
            "VITB12",
            "Vitamin B12",
            "OTHER",
            "399",
            "ng/L",
            "200",
            "900",
            "294.3822",
            294.3822,
            "pmol/L",
            148,
            664,
            "NORMAL",
            "Y",
            1,
            "SCREENING 1",
            -7,
            "SCREENING",
            "2013-12-26T14:45",
            -7
          ],
          [
            23,
            "CDISCPILOT01",
            "LB",
            "01-701-1023",
            12,
            "COLOR",
            "Color",
            "URINALYSIS",
            "N",
            "",
            "",
            "",
            "N",
            null,
            "",
            null,
            null,
            "NORMAL",
            "Y",
            1,
            "SCREENING 1",
            -7,
            "SCREENING",
            "2012-07-22T12:13",
            -14
          ],
          [
            24,
            "CDISCPILOT01",
            "LB",
            "01-701-1023",
            49,
            "COLOR",
            "Color",
            "URINALYSIS",
            "N",
            "",
            "",
            "",
            "N",
            null,
            "",
            null,
            null,
            "NORMAL",
            "",
            4,
            "WEEK 2",
            14,
            "TREATMENT",
            "2012-08-27T15:47",
            23
          ],
          [
            25,
            "CDISCPILOT01",
            "LB",
            "01-701-1023",
            84,
            "COLOR",
            "Color",
            "URINALYSIS",
            "N",
            "",
            "",
            "",
            "N",
            null,
            "",
            null,
            null,
            "NORMAL",
            "",
            5,
            "WEEK 4",
            28,
            "TREATMENT",
            "2012-09-02T10:15",
            29
          ],
          [
            26,
            "CDISCPILOT01",
            "LB",
            "01-701-1023",
            20,
            "KETONES",
            "Ketones",
            "URINALYSIS",
            "0",
            "",
            "",
            "",
            "0",
            0,
            "",
            null,
            null,
            "NORMAL",
            "Y",
            1,
            "SCREENING 1",
            -7,
            "SCREENING",
            "2012-07-22T12:13",
            -14
          ],
          [
            27,
            "CDISCPILOT01",
            "LB",
            "01-701-1023",
            57,
            "KETONES",
            "Ketones",
            "URINALYSIS",
            "0",
            "",
            "",
            "",
            "0",
            0,
            "",
            null,
            null,
            "NORMAL",
            "",
            4,
            "WEEK 2",
            14,
            "TREATMENT",
            "2012-08-27T15:47",
            23
          ],
          [
            28,
            "CDISCPILOT01",
            "LB",
            "01-701-1023",
            92,
            "KETONES",
            "Ketones",
            "URINALYSIS",
            "0",
            "",
            "",
            "",
            "0",
            0,
            "",
            null,
            null,
            "NORMAL",
            "",
            5,
            "WEEK 4",
            28,
            "TREATMENT",
            "2012-09-02T10:15",
            29
          ],
          [
            29,
            "CDISCPILOT01",
            "LB",
            "01-701-1023",
            27,
            "PH",
            "pH",
            "URINALYSIS",
            "5.0",
            "",
            "5",
            "8",
            "5",
            5,
            "",
            5,
            8,
            "NORMAL",
            "Y",
            1,
            "SCREENING 1",
            -7,
            "SCREENING",
            "2012-07-22T12:13",
            -14
          ],
          [
            30,
            "CDISCPILOT01",
            "LB",
            "01-701-1023",
            64,
            "PH",
            "pH",
            "URINALYSIS",
            "5.0",
            "",
            "5",
            "8",
            "5",
            5,
            "",
            5,
            8,
            "NORMAL",
            "",
            4,
            "WEEK 2",
            14,
            "TREATMENT",
            "2012-08-27T15:47",
            23
          ],
          [
            31,
            "CDISCPILOT01",
            "LB",
            "01-701-1023",
            99,
            "PH",
            "pH",
            "URINALYSIS",
            "5.0",
            "",
            "5",
            "8",
            "5",
            5,
            "",
            5,
            8,
            "NORMAL",
            "",
            5,
            "WEEK 4",
            28,
            "TREATMENT",
            "2012-09-02T10:15",
            29
          ],
          [
            32,
            "CDISCPILOT01",
            "LB",
            "01-701-1023",
            32,
            "SPGRAV",
            "Specific Gravity",
            "URINALYSIS",
            "1.016",
            "",
            "1.006",
            "1.03",
            "1.016",
            1.016,
            "",
            1.006,
            1.03,
            "NORMAL",
            "Y",
            1,
            "SCREENING 1",
            -7,
            "SCREENING",
            "2012-07-22T12:13",
            -14
          ],
          [
            33,
            "CDISCPILOT01",
            "LB",
            "01-701-1023",
            69,
            "SPGRAV",
            "Specific Gravity",
            "URINALYSIS",
            "1.026",
            "",
            "1.006",
            "1.03",
            "1.026",
            1.026,
            "",
            1.006,
            1.03,
            "NORMAL",
            "",
            4,
            "WEEK 2",
            14,
            "TREATMENT",
            "2012-08-27T15:47",
            23
          ],
          [
            34,
            "CDISCPILOT01",
            "LB",
            "01-701-1023",
            104,
            "SPGRAV",
            "Specific Gravity",
            "URINALYSIS",
            "1.016",
            "",
            "1.006",
            "1.03",
            "1.016",
            1.016,
            "",
            1.006,
            1.03,
            "NORMAL",
            "",
            5,
            "WEEK 4",
            28,
            "TREATMENT",
            "2012-09-02T10:15",
            29
          ],
          [
            35,
            "CDISCPILOT01",
            "LB",
            "01-701-1023",
            33,
            "TSH",
            "Thyrotropin",
            "OTHER",
            "1.28",
            "mIU/L",
            "0.32",
            "5",
            "1.28",
            1.28,
            "mU/L",
            0.32,
            5,
            "NORMAL",
            "Y",
            1,
            "SCREENING 1",
            -7,
            "SCREENING",
            "2012-07-22T12:13",
            -14
          ],
          [
            36,
            "CDISCPILOT01",
            "LB",
            "01-701-1023",
            35,
            "UROBIL",
            "Urobilinogen",
            "URINALYSIS",
            "0",
            "",
            "",
            "",
            "0",
            0,
            "",
            null,
            null,
            "NORMAL",
            "Y",
            1,
            "SCREENING 1",
            -7,
            "SCREENING",
            "2012-07-22T12:13",
            -14
          ],
          [
            37,
            "CDISCPILOT01",
            "LB",
            "01-701-1023",
            71,
            "UROBIL",
            "Urobilinogen",
            "URINALYSIS",
            "0",
            "",
            "",
            "",
            "0",
            0,
            "",
            null,
            null,
            "NORMAL",
            "",
            4,
            "WEEK 2",
            14,
            "TREATMENT",
            "2012-08-27T15:47",
            23
          ],
          [
            38,
            "CDISCPILOT01",
            "LB",
            "01-701-1023",
            106,
            "UROBIL",
            "Urobilinogen",
            "URINALYSIS",
            "0",
            "",
            "",
            "",
            "0",
            0,
            "",
            null,
            null,
            "NORMAL",
            "",
            5,
            "WEEK 4",
            28,
            "TREATMENT",
            "2012-09-02T10:15",
            29
          ],
          [
            39,
            "CDISCPILOT01",
            "LB",
            "01-701-1023",
            36,
            "VITB12",
            "Vitamin B12",
            "OTHER",
            "553",
            "ng/L",
            "200",
            "900",
            "408.0034",
            408.0034,
            "pmol/L",
            148,
            664,
            "NORMAL",
            "Y",
            1,
            "SCREENING 1",
            -7,
            "SCREENING",
            "2012-07-22T12:13",
            -14
          ],
          [
            40,
            "CDISCPILOT01",
            "LB",
            "01-701-1028",
            12,
            "COLOR",
            "Color",
            "URINALYSIS",
            "N",
            "",
            "",
            "",
            "N",
            null,
            "",
            null,
            null,
            "NORMAL",
            "Y",
            1,
            "SCREENING 1",
            -7,
            "SCREENING",
            "2013-07-11T12:02",
            -8
          ],
          [
            41,
            "CDISCPILOT01",
            "LB",
            "01-701-1028",
            49,
            "COLOR",
            "Color",
            "URINALYSIS",
            "N",
            "",
            "",
            "",
            "N",
            null,
            "",
            null,
            null,
            "NORMAL",
            "",
            4,
            "WEEK 2",
            14,
            "TREATMENT",
            "2013-08-01T09:15",
            14
          ],
          [
            42,
            "CDISCPILOT01",
            "LB",
            "01-701-1028",
            174,
            "COLOR",
            "Color",
            "URINALYSIS",
            "N",
            "",
            "",
            "",
            "N",
            null,
            "",
            null,
            null,
            "NORMAL",
            "",
            9,
            "WEEK 12",
            84,
            "TREATMENT",
            "2013-10-09T08:42",
            83
          ],
          [
            43,
            "CDISCPILOT01",
            "LB",
            "01-701-1028",
            272,
            "COLOR",
            "Color",
            "URINALYSIS",
            "N",
            "",
            "",
            "",
            "N",
            null,
            "",
            null,
            null,
            "NORMAL",
            "",
            12,
            "WEEK 24",
            168,
            "TREATMENT",
            "2014-01-06T10:00",
            172
          ],
          [
            44,
            "CDISCPILOT01",
            "LB",
            "01-701-1028",
            20,
            "KETONES",
            "Ketones",
            "URINALYSIS",
            "0",
            "",
            "",
            "",
            "0",
            0,
            "",
            null,
            null,
            "NORMAL",
            "Y",
            1,
            "SCREENING 1",
            -7,
            "SCREENING",
            "2013-07-11T12:02",
            -8
          ],
          [
            45,
            "CDISCPILOT01",
            "LB",
            "01-701-1028",
            57,
            "KETONES",
            "Ketones",
            "URINALYSIS",
            "0",
            "",
            "",
            "",
            "0",
            0,
            "",
            null,
            null,
            "NORMAL",
            "",
            4,
            "WEEK 2",
            14,
            "TREATMENT",
            "2013-08-01T09:15",
            14
          ],
          [
            46,
            "CDISCPILOT01",
            "LB",
            "01-701-1028",
            182,
            "KETONES",
            "Ketones",
            "URINALYSIS",
            "0",
            "",
            "",
            "",
            "0",
            0,
            "",
            null,
            null,
            "NORMAL",
            "",
            9,
            "WEEK 12",
            84,
            "TREATMENT",
            "2013-10-09T08:42",
            83
          ],
          [
            47,
            "CDISCPILOT01",
            "LB",
            "01-701-1028",
            280,
            "KETONES",
            "Ketones",
            "URINALYSIS",
            "0",
            "",
            "",
            "",
            "0",
            0,
            "",
            null,
            null,
            "NORMAL",
            "",
            12,
            "WEEK 24",
            168,
            "TREATMENT",
            "2014-01-06T10:00",
            172
          ],
          [
            48,
            "CDISCPILOT01",
            "LB",
            "01-701-1028",
            27,
            "PH",
            "pH",
            "URINALYSIS",
            "5.0",
            "",
            "5",
            "8",
            "5",
            5,
            "",
            5,
            8,
            "NORMAL",
            "Y",
            1,
            "SCREENING 1",
            -7,
            "SCREENING",
            "2013-07-11T12:02",
            -8
          ],
          [
            49,
            "CDISCPILOT01",
            "LB",
            "01-701-1028",
            64,
            "PH",
            "pH",
            "URINALYSIS",
            "5.0",
            "",
            "5",
            "8",
            "5",
            5,
            "",
            5,
            8,
            "NORMAL",
            "",
            4,
            "WEEK 2",
            14,
            "TREATMENT",
            "2013-08-01T09:15",
            14
          ],
          [
            50,
            "CDISCPILOT01",
            "LB",
            "01-701-1028",
            189,
            "PH",
            "pH",
            "URINALYSIS",
            "5.0",
            "",
            "5",
            "8",
            "5",
            5,
            "",
            5,
            8,
            "NORMAL",
            "",
            9,
            "WEEK 12",
            84,
            "TREATMENT",
            "2013-10-09T08:42",
            83
          ],
          [
            51,
            "CDISCPILOT01",
            "LB",
            "01-701-1028",
            288,
            "PH",
            "pH",
            "URINALYSIS",
            "5.0",
            "",
            "5",
            "8",
            "5",
            5,
            "",
            5,
            8,
            "NORMAL",
            "",
            12,
            "WEEK 24",
            168,
            "TREATMENT",
            "2014-01-06T10:00",
            172
          ],
          [
            52,
            "CDISCPILOT01",
            "LB",
            "01-701-1028",
            32,
            "SPGRAV",
            "Specific Gravity",
            "URINALYSIS",
            "1.008",
            "",
            "1.006",
            "1.03",
            "1.008",
            1.008,
            "",
            1.006,
            1.03,
            "NORMAL",
            "Y",
            1,
            "SCREENING 1",
            -7,
            "SCREENING",
            "2013-07-11T12:02",
            -8
          ],
          [
            53,
            "CDISCPILOT01",
            "LB",
            "01-701-1028",
            69,
            "SPGRAV",
            "Specific Gravity",
            "URINALYSIS",
            "1.010",
            "",
            "1.006",
            "1.03",
            "1.01",
            1.01,
            "",
            1.006,
            1.03,
            "NORMAL",
            "",
            4,
            "WEEK 2",
            14,
            "TREATMENT",
            "2013-08-01T09:15",
            14
          ],
          [
            54,
            "CDISCPILOT01",
            "LB",
            "01-701-1028",
            194,
            "SPGRAV",
            "Specific Gravity",
            "URINALYSIS",
            "1.008",
            "",
            "1.006",
            "1.03",
            "1.008",
            1.008,
            "",
            1.006,
            1.03,
            "NORMAL",
            "",
            9,
            "WEEK 12",
            84,
            "TREATMENT",
            "2013-10-09T08:42",
            83
          ],
          [
            55,
            "CDISCPILOT01",
            "LB",
            "01-701-1028",
            294,
            "SPGRAV",
            "Specific Gravity",
            "URINALYSIS",
            "1.012",
            "",
            "1.006",
            "1.03",
            "1.012",
            1.012,
            "",
            1.006,
            1.03,
            "NORMAL",
            "",
            12,
            "WEEK 24",
            168,
            "TREATMENT",
            "2014-01-06T10:00",
            172
          ],
          [
            56,
            "CDISCPILOT01",
            "LB",
            "01-701-1028",
            33,
            "TSH",
            "Thyrotropin",
            "OTHER",
            "2.90",
            "mIU/L",
            "0.32",
            "5",
            "2.9",
            2.9,
            "mU/L",
            0.32,
            5,
            "NORMAL",
            "Y",
            1,
            "SCREENING 1",
            -7,
            "SCREENING",
            "2013-07-11T12:02",
            -8
          ],
          [
            57,
            "CDISCPILOT01",
            "LB",
            "01-701-1028",
            35,
            "UROBIL",
            "Urobilinogen",
            "URINALYSIS",
            "0",
            "",
            "",
            "",
            "0",
            0,
            "",
            null,
            null,
            "NORMAL",
            "Y",
            1,
            "SCREENING 1",
            -7,
            "SCREENING",
            "2013-07-11T12:02",
            -8
          ],
          [
            58,
            "CDISCPILOT01",
            "LB",
            "01-701-1028",
            71,
            "UROBIL",
            "Urobilinogen",
            "URINALYSIS",
            "0",
            "",
            "",
            "",
            "0",
            0,
            "",
            null,
            null,
            "NORMAL",
            "",
            4,
            "WEEK 2",
            14,
            "TREATMENT",
            "2013-08-01T09:15",
            14
          ],
          [
            59,
            "CDISCPILOT01",
            "LB",
            "01-701-1028",
            196,
            "UROBIL",
            "Urobilinogen",
            "URINALYSIS",
            "0",
            "",
            "",
            "",
            "0",
            0,
            "",
            null,
            null,
            "NORMAL",
            "",
            9,
            "WEEK 12",
            84,
            "TREATMENT",
            "2013-10-09T08:42",
            83
          ],
          [
            60,
            "CDISCPILOT01",
            "LB",
            "01-701-1028",
            296,
            "UROBIL",
            "Urobilinogen",
            "URINALYSIS",
            "0",
            "",
            "",
            "",
            "0",
            0,
            "",
            null,
            null,
            "NORMAL",
            "",
            12,
            "WEEK 24",
            168,
            "TREATMENT",
            "2014-01-06T10:00",
            172
          ],
          [
            61,
            "CDISCPILOT01",
            "LB",
            "01-701-1028",
            36,
            "VITB12",
            "Vitamin B12",
            "OTHER",
            "252",
            "ng/L",
            "200",
            "900",
            "185.9256",
            185.9256,
            "pmol/L",
            148,
            664,
            "NORMAL",
            "Y",
            1,
            "SCREENING 1",
            -7,
            "SCREENING",
            "2013-07-11T12:02",
            -8
          ],
          [
            62,
            "CDISCPILOT01",
            "LB",
            "01-701-1033",
            12,
            "COLOR",
            "Color",
            "URINALYSIS",
            "N",
            "",
            "",
            "",
            "N",
            null,
            "",
            null,
            null,
            "NORMAL",
            "Y",
            1,
            "SCREENING 1",
            -7,
            "SCREENING",
            "2014-03-10T12:31",
            -8
          ],
          [
            63,
            "CDISCPILOT01",
            "LB",
            "01-701-1033",
            49,
            "COLOR",
            "Color",
            "URINALYSIS",
            "N",
            "",
            "",
            "",
            "N",
            null,
            "",
            null,
            null,
            "NORMAL",
            "",
            4,
            "WEEK 2",
            14,
            "TREATMENT",
            "2014-04-01T08:55",
            15
          ],
          [
            64,
            "CDISCPILOT01",
            "LB",
            "01-701-1033",
            84,
            "COLOR",
            "Color",
            "URINALYSIS",
            "N",
            "",
            "",
            "",
            "N",
            null,
            "",
            null,
            null,
            "NORMAL",
            "",
            5,
            "WEEK 4",
            28,
            "TREATMENT",
            "2014-04-14T10:38",
            28
          ],
          [
            65,
            "CDISCPILOT01",
            "LB",
            "01-701-1033",
            20,
            "KETONES",
            "Ketones",
            "URINALYSIS",
            "0",
            "",
            "",
            "",
            "0",
            0,
            "",
            null,
            null,
            "NORMAL",
            "Y",
            1,
            "SCREENING 1",
            -7,
            "SCREENING",
            "2014-03-10T12:31",
            -8
          ],
          [
            66,
            "CDISCPILOT01",
            "LB",
            "01-701-1033",
            57,
            "KETONES",
            "Ketones",
            "URINALYSIS",
            "0",
            "",
            "",
            "",
            "0",
            0,
            "",
            null,
            null,
            "NORMAL",
            "",
            4,
            "WEEK 2",
            14,
            "TREATMENT",
            "2014-04-01T08:55",
            15
          ],
          [
            67,
            "CDISCPILOT01",
            "LB",
            "01-701-1033",
            92,
            "KETONES",
            "Ketones",
            "URINALYSIS",
            "0",
            "",
            "",
            "",
            "0",
            0,
            "",
            null,
            null,
            "NORMAL",
            "",
            5,
            "WEEK 4",
            28,
            "TREATMENT",
            "2014-04-14T10:38",
            28
          ],
          [
            68,
            "CDISCPILOT01",
            "LB",
            "01-701-1033",
            27,
            "PH",
            "pH",
            "URINALYSIS",
            "5.0",
            "",
            "5",
            "8",
            "5",
            5,
            "",
            5,
            8,
            "NORMAL",
            "Y",
            1,
            "SCREENING 1",
            -7,
            "SCREENING",
            "2014-03-10T12:31",
            -8
          ],
          [
            69,
            "CDISCPILOT01",
            "LB",
            "01-701-1033",
            64,
            "PH",
            "pH",
            "URINALYSIS",
            "5.0",
            "",
            "5",
            "8",
            "5",
            5,
            "",
            5,
            8,
            "NORMAL",
            "",
            4,
            "WEEK 2",
            14,
            "TREATMENT",
            "2014-04-01T08:55",
            15
          ],
          [
            70,
            "CDISCPILOT01",
            "LB",
            "01-701-1033",
            99,
            "PH",
            "pH",
            "URINALYSIS",
            "5.0",
            "",
            "5",
            "8",
            "5",
            5,
            "",
            5,
            8,
            "NORMAL",
            "",
            5,
            "WEEK 4",
            28,
            "TREATMENT",
            "2014-04-14T10:38",
            28
          ],
          [
            71,
            "CDISCPILOT01",
            "LB",
            "01-701-1033",
            32,
            "SPGRAV",
            "Specific Gravity",
            "URINALYSIS",
            "1.020",
            "",
            "1.006",
            "1.03",
            "1.02",
            1.02,
            "",
            1.006,
            1.03,
            "NORMAL",
            "Y",
            1,
            "SCREENING 1",
            -7,
            "SCREENING",
            "2014-03-10T12:31",
            -8
          ],
          [
            72,
            "CDISCPILOT01",
            "LB",
            "01-701-1033",
            69,
            "SPGRAV",
            "Specific Gravity",
            "URINALYSIS",
            "1.014",
            "",
            "1.006",
            "1.03",
            "1.014",
            1.014,
            "",
            1.006,
            1.03,
            "NORMAL",
            "",
            4,
            "WEEK 2",
            14,
            "TREATMENT",
            "2014-04-01T08:55",
            15
          ],
          [
            73,
            "CDISCPILOT01",
            "LB",
            "01-701-1033",
            104,
            "SPGRAV",
            "Specific Gravity",
            "URINALYSIS",
            "1.027",
            "",
            "1.006",
            "1.03",
            "1.027",
            1.027,
            "",
            1.006,
            1.03,
            "NORMAL",
            "",
            5,
            "WEEK 4",
            28,
            "TREATMENT",
            "2014-04-14T10:38",
            28
          ],
          [
            74,
            "CDISCPILOT01",
            "LB",
            "01-701-1033",
            33,
            "TSH",
            "Thyrotropin",
            "OTHER",
            "0.84",
            "mIU/L",
            "0.32",
            "5",
            "0.84",
            0.84,
            "mU/L",
            0.32,
            5,
            "NORMAL",
            "Y",
            1,
            "SCREENING 1",
            -7,
            "SCREENING",
            "2014-03-10T12:31",
            -8
          ],
          [
            75,
            "CDISCPILOT01",
            "LB",
            "01-701-1033",
            35,
            "UROBIL",
            "Urobilinogen",
            "URINALYSIS",
            "0",
            "",
            "",
            "",
            "0",
            0,
            "",
            null,
            null,
            "NORMAL",
            "Y",
            1,
            "SCREENING 1",
            -7,
            "SCREENING",
            "2014-03-10T12:31",
            -8
          ],
          [
            76,
            "CDISCPILOT01",
            "LB",
            "01-701-1033",
            71,
            "UROBIL",
            "Urobilinogen",
            "URINALYSIS",
            "0",
            "",
            "",
            "",
            "0",
            0,
            "",
            null,
            null,
            "NORMAL",
            "",
            4,
            "WEEK 2",
            14,
            "TREATMENT",
            "2014-04-01T08:55",
            15
          ],
          [
            77,
            "CDISCPILOT01",
            "LB",
            "01-701-1033",
            106,
            "UROBIL",
            "Urobilinogen",
            "URINALYSIS",
            "0",
            "",
            "",
            "",
            "0",
            0,
            "",
            null,
            null,
            "NORMAL",
            "",
            5,
            "WEEK 4",
            28,
            "TREATMENT",
            "2014-04-14T10:38",
            28
          ],
          [
            78,
            "CDISCPILOT01",
            "LB",
            "01-701-1033",
            36,
            "VITB12",
            "Vitamin B12",
            "OTHER",
            "503",
            "ng/L",
            "200",
            "900",
            "371.1134",
            371.1134,
            "pmol/L",
            148,
            664,
            "NORMAL",
            "Y",
            1,
            "SCREENING 1",
            -7,
            "SCREENING",
            "2014-03-10T12:31",
            -8
          ],
          [
            79,
            "CDISCPILOT01",
            "LB",
            "01-701-1034",
            13,
            "COLOR",
            "Color",
            "URINALYSIS",
            "N",
            "",
            "",
            "",
            "N",
            null,
            "",
            null,
            null,
            "NORMAL",
            "Y",
            1,
            "SCREENING 1",
            -7,
            "SCREENING",
            "2014-06-24T15:30",
            -7
          ],
          [
            80,
            "CDISCPILOT01",
            "LB",
            "01-701-1034",
            50,
            "COLOR",
            "Color",
            "URINALYSIS",
            "N",
            "",
            "",
            "",
            "N",
            null,
            "",
            null,
            null,
            "NORMAL",
            "",
            4,
            "WEEK 2",
            14,
            "TREATMENT",
            "2014-07-15T09:25",
            15
          ],
          [
            81,
            "CDISCPILOT01",
            "LB",
            "01-701-1034",
            178,
            "COLOR",
            "Color",
            "URINALYSIS",
            "N",
            "",
            "",
            "",
            "N",
            null,
            "",
            null,
            null,
            "NORMAL",
            "",
            9,
            "WEEK 12",
            84,
            "TREATMENT",
            "2014-09-25T15:40",
            87
          ],
          [
            82,
            "CDISCPILOT01",
            "LB",
            "01-701-1034",
            275,
            "COLOR",
            "Color",
            "URINALYSIS",
            "N",
            "",
            "",
            "",
            "N",
            null,
            "",
            null,
            null,
            "NORMAL",
            "",
            12,
            "WEEK 24",
            168,
            "TREATMENT",
            "2014-12-17T14:27",
            170
          ],
          [
            83,
            "CDISCPILOT01",
            "LB",
            "01-701-1034",
            21,
            "KETONES",
            "Ketones",
            "URINALYSIS",
            "0",
            "",
            "",
            "",
            "0",
            0,
            "",
            null,
            null,
            "NORMAL",
            "Y",
            1,
            "SCREENING 1",
            -7,
            "SCREENING",
            "2014-06-24T15:30",
            -7
          ],
          [
            84,
            "CDISCPILOT01",
            "LB",
            "01-701-1034",
            58,
            "KETONES",
            "Ketones",
            "URINALYSIS",
            "0",
            "",
            "",
            "",
            "0",
            0,
            "",
            null,
            null,
            "NORMAL",
            "",
            4,
            "WEEK 2",
            14,
            "TREATMENT",
            "2014-07-15T09:25",
            15
          ],
          [
            85,
            "CDISCPILOT01",
            "LB",
            "01-701-1034",
            186,
            "KETONES",
            "Ketones",
            "URINALYSIS",
            "0",
            "",
            "",
            "",
            "0",
            0,
            "",
            null,
            null,
            "NORMAL",
            "",
            9,
            "WEEK 12",
            84,
            "TREATMENT",
            "2014-09-25T15:40",
            87
          ],
          [
            86,
            "CDISCPILOT01",
            "LB",
            "01-701-1034",
            283,
            "KETONES",
            "Ketones",
            "URINALYSIS",
            "0",
            "",
            "",
            "",
            "0",
            0,
            "",
            null,
            null,
            "NORMAL",
            "",
            12,
            "WEEK 24",
            168,
            "TREATMENT",
            "2014-12-17T14:27",
            170
          ],
          [
            87,
            "CDISCPILOT01",
            "LB",
            "01-701-1034",
            28,
            "PH",
            "pH",
            "URINALYSIS",
            "5.0",
            "",
            "5",
            "8",
            "5",
            5,
            "",
            5,
            8,
            "NORMAL",
            "Y",
            1,
            "SCREENING 1",
            -7,
            "SCREENING",
            "2014-06-24T15:30",
            -7
          ],
          [
            88,
            "CDISCPILOT01",
            "LB",
            "01-701-1034",
            66,
            "PH",
            "pH",
            "URINALYSIS",
            "5.0",
            "",
            "5",
            "8",
            "5",
            5,
            "",
            5,
            8,
            "NORMAL",
            "",
            4,
            "WEEK 2",
            14,
            "TREATMENT",
            "2014-07-15T09:25",
            15
          ],
          [
            89,
            "CDISCPILOT01",
            "LB",
            "01-701-1034",
            193,
            "PH",
            "pH",
            "URINALYSIS",
            "5.0",
            "",
            "5",
            "8",
            "5",
            5,
            "",
            5,
            8,
            "NORMAL",
            "",
            9,
            "WEEK 12",
            84,
            "TREATMENT",
            "2014-09-25T15:40",
            87
          ],
          [
            90,
            "CDISCPILOT01",
            "LB",
            "01-701-1034",
            291,
            "PH",
            "pH",
            "URINALYSIS",
            "5.0",
            "",
            "5",
            "8",
            "5",
            5,
            "",
            5,
            8,
            "NORMAL",
            "",
            12,
            "WEEK 24",
            168,
            "TREATMENT",
            "2014-12-17T14:27",
            170
          ],
          [
            91,
            "CDISCPILOT01",
            "LB",
            "01-701-1034",
            33,
            "SPGRAV",
            "Specific Gravity",
            "URINALYSIS",
            "1.015",
            "",
            "1.006",
            "1.03",
            "1.015",
            1.015,
            "",
            1.006,
            1.03,
            "NORMAL",
            "Y",
            1,
            "SCREENING 1",
            -7,
            "SCREENING",
            "2014-06-24T15:30",
            -7
          ],
          [
            92,
            "CDISCPILOT01",
            "LB",
            "01-701-1034",
            71,
            "SPGRAV",
            "Specific Gravity",
            "URINALYSIS",
            "1.019",
            "",
            "1.006",
            "1.03",
            "1.019",
            1.019,
            "",
            1.006,
            1.03,
            "NORMAL",
            "",
            4,
            "WEEK 2",
            14,
            "TREATMENT",
            "2014-07-15T09:25",
            15
          ],
          [
            93,
            "CDISCPILOT01",
            "LB",
            "01-701-1034",
            198,
            "SPGRAV",
            "Specific Gravity",
            "URINALYSIS",
            "1.007",
            "",
            "1.006",
            "1.03",
            "1.007",
            1.007,
            "",
            1.006,
            1.03,
            "NORMAL",
            "",
            9,
            "WEEK 12",
            84,
            "TREATMENT",
            "2014-09-25T15:40",
            87
          ],
          [
            94,
            "CDISCPILOT01",
            "LB",
            "01-701-1034",
            296,
            "SPGRAV",
            "Specific Gravity",
            "URINALYSIS",
            "1.015",
            "",
            "1.006",
            "1.03",
            "1.015",
            1.015,
            "",
            1.006,
            1.03,
            "NORMAL",
            "",
            12,
            "WEEK 24",
            168,
            "TREATMENT",
            "2014-12-17T14:27",
            170
          ],
          [
            95,
            "CDISCPILOT01",
            "LB",
            "01-701-1034",
            34,
            "TSH",
            "Thyrotropin",
            "OTHER",
            "0.27",
            "mIU/L",
            "0.32",
            "5",
            "0.27",
            0.27,
            "mU/L",
            0.32,
            5,
            "LOW",
            "Y",
            1,
            "SCREENING 1",
            -7,
            "SCREENING",
            "2014-06-24T15:30",
            -7
          ],
          [
            96,
            "CDISCPILOT01",
            "LB",
            "01-701-1034",
            36,
            "UROBIL",
            "Urobilinogen",
            "URINALYSIS",
            "0",
            "",
            "",
            "",
            "0",
            0,
            "",
            null,
            null,
            "NORMAL",
            "Y",
            1,
            "SCREENING 1",
            -7,
            "SCREENING",
            "2014-06-24T15:30",
            -7
          ],
          [
            97,
            "CDISCPILOT01",
            "LB",
            "01-701-1034",
            73,
            "UROBIL",
            "Urobilinogen",
            "URINALYSIS",
            "0",
            "",
            "",
            "",
            "0",
            0,
            "",
            null,
            null,
            "NORMAL",
            "",
            4,
            "WEEK 2",
            14,
            "TREATMENT",
            "2014-07-15T09:25",
            15
          ],
          [
            98,
            "CDISCPILOT01",
            "LB",
            "01-701-1034",
            200,
            "UROBIL",
            "Urobilinogen",
            "URINALYSIS",
            "0",
            "",
            "",
            "",
            "0",
            0,
            "",
            null,
            null,
            "NORMAL",
            "",
            9,
            "WEEK 12",
            84,
            "TREATMENT",
            "2014-09-25T15:40",
            87
          ],
          [
            99,
            "CDISCPILOT01",
            "LB",
            "01-701-1034",
            298,
            "UROBIL",
            "Urobilinogen",
            "URINALYSIS",
            "0",
            "",
            "",
            "",
            "0",
            0,
            "",
            null,
            null,
            "NORMAL",
            "",
            12,
            "WEEK 24",
            168,
            "TREATMENT",
            "2014-12-17T14:27",
            170
          ],
          [
            100,
            "CDISCPILOT01",
            "LB",
            "01-701-1034",
            37,
            "VITB12",
            "Vitamin B12",
            "OTHER",
            "592",
            "ng/L",
            "200",
            "900",
            "436.7776",
            436.7776,
            "pmol/L",
            148,
            664,
            "NORMAL",
            "Y",
            1,
            "SCREENING 1",
            -7,
            "SCREENING",
            "2014-06-24T15:30",
            -7
          ],
          [
            101,
            "CDISCPILOT01",
            "LB",
            "01-701-1047",
            12,
            "COLOR",
            "Color",
            "URINALYSIS",
            "N",
            "",
            "",
            "",
            "N",
            null,
            "",
            null,
            null,
            "NORMAL",
            "Y",
            1,
            "SCREENING 1",
            -7,
            "SCREENING",
            "2013-01-22T14:36",
            -21
          ],
          [
            102,
            "CDISCPILOT01",
            "LB",
            "01-701-1047",
            49,
            "COLOR",
            "Color",
            "URINALYSIS",
            "N",
            "",
            "",
            "",
            "N",
            null,
            "",
            null,
            null,
            "NORMAL",
            "",
            4,
            "WEEK 2",
            14,
            "TREATMENT",
            "2013-02-25T12:10",
            14
          ],
          [
            103,
            "CDISCPILOT01",
            "LB",
            "01-701-1047",
            104,
            "COLOR",
            "Color",
            "URINALYSIS",
            "N",
            "",
            "",
            "",
            "N",
            null,
            "",
            null,
            null,
            "NORMAL",
            "",
            6,
            "AMBUL ECG REMOVAL",
            30,
            "TREATMENT",
            "2013-03-29T12:53",
            46
          ],
          [
            104,
            "CDISCPILOT01",
            "LB",
            "01-701-1047",
            20,
            "KETONES",
            "Ketones",
            "URINALYSIS",
            "0",
            "",
            "",
            "",
            "0",
            0,
            "",
            null,
            null,
            "NORMAL",
            "Y",
            1,
            "SCREENING 1",
            -7,
            "SCREENING",
            "2013-01-22T14:36",
            -21
          ],
          [
            105,
            "CDISCPILOT01",
            "LB",
            "01-701-1047",
            57,
            "KETONES",
            "Ketones",
            "URINALYSIS",
            "0",
            "",
            "",
            "",
            "0",
            0,
            "",
            null,
            null,
            "NORMAL",
            "",
            4,
            "WEEK 2",
            14,
            "TREATMENT",
            "2013-02-25T12:10",
            14
          ],
          [
            106,
            "CDISCPILOT01",
            "LB",
            "01-701-1047",
            108,
            "KETONES",
            "Ketones",
            "URINALYSIS",
            "0",
            "",
            "",
            "",
            "0",
            0,
            "",
            null,
            null,
            "NORMAL",
            "",
            6,
            "AMBUL ECG REMOVAL",
            30,
            "TREATMENT",
            "2013-03-29T12:53",
            46
          ],
          [
            107,
            "CDISCPILOT01",
            "LB",
            "01-701-1047",
            27,
            "PH",
            "pH",
            "URINALYSIS",
            "5.0",
            "",
            "5",
            "8",
            "5",
            5,
            "",
            5,
            8,
            "NORMAL",
            "Y",
            1,
            "SCREENING 1",
            -7,
            "SCREENING",
            "2013-01-22T14:36",
            -21
          ],
          [
            108,
            "CDISCPILOT01",
            "LB",
            "01-701-1047",
            64,
            "PH",
            "pH",
            "URINALYSIS",
            "5.0",
            "",
            "5",
            "8",
            "5",
            5,
            "",
            5,
            8,
            "NORMAL",
            "",
            4,
            "WEEK 2",
            14,
            "TREATMENT",
            "2013-02-25T12:10",
            14
          ],
          [
            109,
            "CDISCPILOT01",
            "LB",
            "01-701-1047",
            114,
            "PH",
            "pH",
            "URINALYSIS",
            "5.0",
            "",
            "5",
            "8",
            "5",
            5,
            "",
            5,
            8,
            "NORMAL",
            "",
            6,
            "AMBUL ECG REMOVAL",
            30,
            "TREATMENT",
            "2013-03-29T12:53",
            46
          ],
          [
            110,
            "CDISCPILOT01",
            "LB",
            "01-701-1047",
            32,
            "SPGRAV",
            "Specific Gravity",
            "URINALYSIS",
            "1.021",
            "",
            "1.006",
            "1.03",
            "1.021",
            1.021,
            "",
            1.006,
            1.03,
            "NORMAL",
            "Y",
            1,
            "SCREENING 1",
            -7,
            "SCREENING",
            "2013-01-22T14:36",
            -21
          ],
          [
            111,
            "CDISCPILOT01",
            "LB",
            "01-701-1047",
            69,
            "SPGRAV",
            "Specific Gravity",
            "URINALYSIS",
            "1.015",
            "",
            "1.006",
            "1.03",
            "1.015",
            1.015,
            "",
            1.006,
            1.03,
            "NORMAL",
            "",
            4,
            "WEEK 2",
            14,
            "TREATMENT",
            "2013-02-25T12:10",
            14
          ],
          [
            112,
            "CDISCPILOT01",
            "LB",
            "01-701-1047",
            117,
            "SPGRAV",
            "Specific Gravity",
            "URINALYSIS",
            "1.025",
            "",
            "1.006",
            "1.03",
            "1.025",
            1.025,
            "",
            1.006,
            1.03,
            "NORMAL",
            "",
            6,
            "AMBUL ECG REMOVAL",
            30,
            "TREATMENT",
            "2013-03-29T12:53",
            46
          ],
          [
            113,
            "CDISCPILOT01",
            "LB",
            "01-701-1047",
            33,
            "TSH",
            "Thyrotropin",
            "OTHER",
            "0.46",
            "mIU/L",
            "0.32",
            "5",
            "0.46",
            0.46,
            "mU/L",
            0.32,
            5,
            "NORMAL",
            "Y",
            1,
            "SCREENING 1",
            -7,
            "SCREENING",
            "2013-01-22T14:36",
            -21
          ],
          [
            114,
            "CDISCPILOT01",
            "LB",
            "01-701-1047",
            35,
            "UROBIL",
            "Urobilinogen",
            "URINALYSIS",
            "0",
            "",
            "",
            "",
            "0",
            0,
            "",
            null,
            null,
            "NORMAL",
            "Y",
            1,
            "SCREENING 1",
            -7,
            "SCREENING",
            "2013-01-22T14:36",
            -21
          ],
          [
            115,
            "CDISCPILOT01",
            "LB",
            "01-701-1047",
            71,
            "UROBIL",
            "Urobilinogen",
            "URINALYSIS",
            "0",
            "",
            "",
            "",
            "0",
            0,
            "",
            null,
            null,
            "NORMAL",
            "",
            4,
            "WEEK 2",
            14,
            "TREATMENT",
            "2013-02-25T12:10",
            14
          ],
          [
            116,
            "CDISCPILOT01",
            "LB",
            "01-701-1047",
            118,
            "UROBIL",
            "Urobilinogen",
            "URINALYSIS",
            "0",
            "",
            "",
            "",
            "0",
            0,
            "",
            null,
            null,
            "NORMAL",
            "",
            6,
            "AMBUL ECG REMOVAL",
            30,
            "TREATMENT",
            "2013-03-29T12:53",
            46
          ],
          [
            117,
            "CDISCPILOT01",
            "LB",
            "01-701-1047",
            36,
            "VITB12",
            "Vitamin B12",
            "OTHER",
            "585",
            "ng/L",
            "200",
            "900",
            "431.613",
            431.613,
            "pmol/L",
            148,
            664,
            "NORMAL",
            "Y",
            1,
            "SCREENING 1",
            -7,
            "SCREENING",
            "2013-01-22T14:36",
            -21
          ],
          [
            118,
            "CDISCPILOT01",
            "LB",
            "01-701-1097",
            12,
            "COLOR",
            "Color",
            "URINALYSIS",
            "N",
            "",
            "",
            "",
            "N",
            null,
            "",
            null,
            null,
            "NORMAL",
            "Y",
            1,
            "SCREENING 1",
            -7,
            "SCREENING",
            "2013-12-23T12:30",
            -9
          ],
          [
            119,
            "CDISCPILOT01",
            "LB",
            "01-701-1097",
            49,
            "COLOR",
            "Color",
            "URINALYSIS",
            "N",
            "",
            "",
            "",
            "N",
            null,
            "",
            null,
            null,
            "NORMAL",
            "",
            4,
            "WEEK 2",
            14,
            "TREATMENT",
            "2014-01-15T10:03",
            15
          ],
          [
            120,
            "CDISCPILOT01",
            "LB",
            "01-701-1097",
            174,
            "COLOR",
            "Color",
            "URINALYSIS",
            "N",
            "",
            "",
            "",
            "N",
            null,
            "",
            null,
            null,
            "NORMAL",
            "",
            9,
            "WEEK 12",
            84,
            "TREATMENT",
            "2014-03-26T08:55",
            85
          ],
          [
            121,
            "CDISCPILOT01",
            "LB",
            "01-701-1097",
            269,
            "COLOR",
            "Color",
            "URINALYSIS",
            "N",
            "",
            "",
            "",
            "N",
            null,
            "",
            null,
            null,
            "NORMAL",
            "",
            12,
            "WEEK 24",
            168,
            "TREATMENT",
            "2014-06-18T10:41",
            169
          ],
          [
            122,
            "CDISCPILOT01",
            "LB",
            "01-701-1097",
            304,
            "COLOR",
            "Color",
            "URINALYSIS",
            "N",
            "",
            "",
            "",
            "N",
            null,
            "",
            null,
            null,
            "NORMAL",
            "",
            13,
            "WEEK 26",
            182,
            "TREATMENT",
            "2014-07-09T09:39",
            190
          ],
          [
            123,
            "CDISCPILOT01",
            "LB",
            "01-701-1097",
            20,
            "KETONES",
            "Ketones",
            "URINALYSIS",
            "0",
            "",
            "",
            "",
            "0",
            0,
            "",
            null,
            null,
            "NORMAL",
            "Y",
            1,
            "SCREENING 1",
            -7,
            "SCREENING",
            "2013-12-23T12:30",
            -9
          ],
          [
            124,
            "CDISCPILOT01",
            "LB",
            "01-701-1097",
            57,
            "KETONES",
            "Ketones",
            "URINALYSIS",
            "0",
            "",
            "",
            "",
            "0",
            0,
            "",
            null,
            null,
            "NORMAL",
            "",
            4,
            "WEEK 2",
            14,
            "TREATMENT",
            "2014-01-15T10:03",
            15
          ],
          [
            125,
            "CDISCPILOT01",
            "LB",
            "01-701-1097",
            182,
            "KETONES",
            "Ketones",
            "URINALYSIS",
            "0",
            "",
            "",
            "",
            "0",
            0,
            "",
            null,
            null,
            "NORMAL",
            "",
            9,
            "WEEK 12",
            84,
            "TREATMENT",
            "2014-03-26T08:55",
            85
          ],
          [
            126,
            "CDISCPILOT01",
            "LB",
            "01-701-1097",
            277,
            "KETONES",
            "Ketones",
            "URINALYSIS",
            "0",
            "",
            "",
            "",
            "0",
            0,
            "",
            null,
            null,
            "NORMAL",
            "",
            12,
            "WEEK 24",
            168,
            "TREATMENT",
            "2014-06-18T10:41",
            169
          ],
          [
            127,
            "CDISCPILOT01",
            "LB",
            "01-701-1097",
            312,
            "KETONES",
            "Ketones",
            "URINALYSIS",
            "0",
            "",
            "",
            "",
            "0",
            0,
            "",
            null,
            null,
            "NORMAL",
            "",
            13,
            "WEEK 26",
            182,
            "TREATMENT",
            "2014-07-09T09:39",
            190
          ],
          [
            128,
            "CDISCPILOT01",
            "LB",
            "01-701-1097",
            27,
            "PH",
            "pH",
            "URINALYSIS",
            "5.0",
            "",
            "5",
            "8",
            "5",
            5,
            "",
            5,
            8,
            "NORMAL",
            "Y",
            1,
            "SCREENING 1",
            -7,
            "SCREENING",
            "2013-12-23T12:30",
            -9
          ],
          [
            129,
            "CDISCPILOT01",
            "LB",
            "01-701-1097",
            64,
            "PH",
            "pH",
            "URINALYSIS",
            "5.0",
            "",
            "5",
            "8",
            "5",
            5,
            "",
            5,
            8,
            "NORMAL",
            "",
            4,
            "WEEK 2",
            14,
            "TREATMENT",
            "2014-01-15T10:03",
            15
          ],
          [
            130,
            "CDISCPILOT01",
            "LB",
            "01-701-1097",
            189,
            "PH",
            "pH",
            "URINALYSIS",
            "5.0",
            "",
            "5",
            "8",
            "5",
            5,
            "",
            5,
            8,
            "NORMAL",
            "",
            9,
            "WEEK 12",
            84,
            "TREATMENT",
            "2014-03-26T08:55",
            85
          ],
          [
            131,
            "CDISCPILOT01",
            "LB",
            "01-701-1097",
            284,
            "PH",
            "pH",
            "URINALYSIS",
            "5.0",
            "",
            "5",
            "8",
            "5",
            5,
            "",
            5,
            8,
            "NORMAL",
            "",
            12,
            "WEEK 24",
            168,
            "TREATMENT",
            "2014-06-18T10:41",
            169
          ],
          [
            132,
            "CDISCPILOT01",
            "LB",
            "01-701-1097",
            319,
            "PH",
            "pH",
            "URINALYSIS",
            "5.0",
            "",
            "5",
            "8",
            "5",
            5,
            "",
            5,
            8,
            "NORMAL",
            "",
            13,
            "WEEK 26",
            182,
            "TREATMENT",
            "2014-07-09T09:39",
            190
          ],
          [
            133,
            "CDISCPILOT01",
            "LB",
            "01-701-1097",
            32,
            "SPGRAV",
            "Specific Gravity",
            "URINALYSIS",
            "1.019",
            "",
            "1.006",
            "1.03",
            "1.019",
            1.019,
            "",
            1.006,
            1.03,
            "NORMAL",
            "Y",
            1,
            "SCREENING 1",
            -7,
            "SCREENING",
            "2013-12-23T12:30",
            -9
          ],
          [
            134,
            "CDISCPILOT01",
            "LB",
            "01-701-1097",
            69,
            "SPGRAV",
            "Specific Gravity",
            "URINALYSIS",
            "1.022",
            "",
            "1.006",
            "1.03",
            "1.022",
            1.022,
            "",
            1.006,
            1.03,
            "NORMAL",
            "",
            4,
            "WEEK 2",
            14,
            "TREATMENT",
            "2014-01-15T10:03",
            15
          ],
          [
            135,
            "CDISCPILOT01",
            "LB",
            "01-701-1097",
            194,
            "SPGRAV",
            "Specific Gravity",
            "URINALYSIS",
            "1.026",
            "",
            "1.006",
            "1.03",
            "1.026",
            1.026,
            "",
            1.006,
            1.03,
            "NORMAL",
            "",
            9,
            "WEEK 12",
            84,
            "TREATMENT",
            "2014-03-26T08:55",
            85
          ],
          [
            136,
            "CDISCPILOT01",
            "LB",
            "01-701-1097",
            289,
            "SPGRAV",
            "Specific Gravity",
            "URINALYSIS",
            "1.025",
            "",
            "1.006",
            "1.03",
            "1.025",
            1.025,
            "",
            1.006,
            1.03,
            "NORMAL",
            "",
            12,
            "WEEK 24",
            168,
            "TREATMENT",
            "2014-06-18T10:41",
            169
          ],
          [
            137,
            "CDISCPILOT01",
            "LB",
            "01-701-1097",
            324,
            "SPGRAV",
            "Specific Gravity",
            "URINALYSIS",
            "1.019",
            "",
            "1.006",
            "1.03",
            "1.019",
            1.019,
            "",
            1.006,
            1.03,
            "NORMAL",
            "",
            13,
            "WEEK 26",
            182,
            "TREATMENT",
            "2014-07-09T09:39",
            190
          ],
          [
            138,
            "CDISCPILOT01",
            "LB",
            "01-701-1097",
            33,
            "TSH",
            "Thyrotropin",
            "OTHER",
            "2.75",
            "mIU/L",
            "0.32",
            "5",
            "2.75",
            2.75,
            "mU/L",
            0.32,
            5,
            "NORMAL",
            "Y",
            1,
            "SCREENING 1",
            -7,
            "SCREENING",
            "2013-12-23T12:30",
            -9
          ],
          [
            139,
            "CDISCPILOT01",
            "LB",
            "01-701-1097",
            35,
            "UROBIL",
            "Urobilinogen",
            "URINALYSIS",
            "0",
            "",
            "",
            "",
            "0",
            0,
            "",
            null,
            null,
            "NORMAL",
            "Y",
            1,
            "SCREENING 1",
            -7,
            "SCREENING",
            "2013-12-23T12:30",
            -9
          ],
          [
            140,
            "CDISCPILOT01",
            "LB",
            "01-701-1097",
            71,
            "UROBIL",
            "Urobilinogen",
            "URINALYSIS",
            "0",
            "",
            "",
            "",
            "0",
            0,
            "",
            null,
            null,
            "NORMAL",
            "",
            4,
            "WEEK 2",
            14,
            "TREATMENT",
            "2014-01-15T10:03",
            15
          ],
          [
            141,
            "CDISCPILOT01",
            "LB",
            "01-701-1097",
            196,
            "UROBIL",
            "Urobilinogen",
            "URINALYSIS",
            "0",
            "",
            "",
            "",
            "0",
            0,
            "",
            null,
            null,
            "NORMAL",
            "",
            9,
            "WEEK 12",
            84,
            "TREATMENT",
            "2014-03-26T08:55",
            85
          ],
          [
            142,
            "CDISCPILOT01",
            "LB",
            "01-701-1097",
            291,
            "UROBIL",
            "Urobilinogen",
            "URINALYSIS",
            "0",
            "",
            "",
            "",
            "0",
            0,
            "",
            null,
            null,
            "NORMAL",
            "",
            12,
            "WEEK 24",
            168,
            "TREATMENT",
            "2014-06-18T10:41",
            169
          ],
          [
            143,
            "CDISCPILOT01",
            "LB",
            "01-701-1097",
            326,
            "UROBIL",
            "Urobilinogen",
            "URINALYSIS",
            "0",
            "",
            "",
            "",
            "0",
            0,
            "",
            null,
            null,
            "NORMAL",
            "",
            13,
            "WEEK 26",
            182,
            "TREATMENT",
            "2014-07-09T09:39",
            190
          ],
          [
            144,
            "CDISCPILOT01",
            "LB",
            "01-701-1097",
            36,
            "VITB12",
            "Vitamin B12",
            "OTHER",
            "411",
            "ng/L",
            "200",
            "900",
            "303.2358",
            303.2358,
            "pmol/L",
            148,
            664,
            "NORMAL",
            "Y",
            1,
            "SCREENING 1",
            -7,
            "SCREENING",
            "2013-12-23T12:30",
            -9
          ],
          [
            145,
            "CDISCPILOT01",
            "LB",
            "01-701-1111",
            12,
            "COLOR",
            "Color",
            "URINALYSIS",
            "N",
            "",
            "",
            "",
            "N",
            null,
            "",
            null,
            null,
            "NORMAL",
            "Y",
            1,
            "SCREENING 1",
            -7,
            "SCREENING",
            "2012-08-25T15:25",
            -13
          ],
          [
            146,
            "CDISCPILOT01",
            "LB",
            "01-701-1111",
            50,
            "COLOR",
            "Color",
            "URINALYSIS",
            "N",
            "",
            "",
            "",
            "N",
            null,
            "",
            null,
            null,
            "NORMAL",
            "",
            4,
            "WEEK 2",
            14,
            "TREATMENT",
            "2012-09-17T11:48",
            11
          ],
          [
            147,
            "CDISCPILOT01",
            "LB",
            "01-701-1111",
            20,
            "KETONES",
            "Ketones",
            "URINALYSIS",
            "0",
            "",
            "",
            "",
            "0",
            0,
            "",
            null,
            null,
            "NORMAL",
            "Y",
            1,
            "SCREENING 1",
            -7,
            "SCREENING",
            "2012-08-25T15:25",
            -13
          ],
          [
            148,
            "CDISCPILOT01",
            "LB",
            "01-701-1111",
            58,
            "KETONES",
            "Ketones",
            "URINALYSIS",
            "0",
            "",
            "",
            "",
            "0",
            0,
            "",
            null,
            null,
            "NORMAL",
            "",
            4,
            "WEEK 2",
            14,
            "TREATMENT",
            "2012-09-17T11:48",
            11
          ],
          [
            149,
            "CDISCPILOT01",
            "LB",
            "01-701-1111",
            27,
            "PH",
            "pH",
            "URINALYSIS",
            "6.0",
            "",
            "5",
            "8",
            "6",
            6,
            "",
            5,
            8,
            "NORMAL",
            "Y",
            1,
            "SCREENING 1",
            -7,
            "SCREENING",
            "2012-08-25T15:25",
            -13
          ],
          [
            150,
            "CDISCPILOT01",
            "LB",
            "01-701-1111",
            65,
            "PH",
            "pH",
            "URINALYSIS",
            "5.0",
            "",
            "5",
            "8",
            "5",
            5,
            "",
            5,
            8,
            "NORMAL",
            "",
            4,
            "WEEK 2",
            14,
            "TREATMENT",
            "2012-09-17T11:48",
            11
          ],
          [
            151,
            "CDISCPILOT01",
            "LB",
            "01-701-1111",
            32,
            "SPGRAV",
            "Specific Gravity",
            "URINALYSIS",
            "1.007",
            "",
            "1.006",
            "1.03",
            "1.007",
            1.007,
            "",
            1.006,
            1.03,
            "NORMAL",
            "Y",
            1,
            "SCREENING 1",
            -7,
            "SCREENING",
            "2012-08-25T15:25",
            -13
          ],
          [
            152,
            "CDISCPILOT01",
            "LB",
            "01-701-1111",
            70,
            "SPGRAV",
            "Specific Gravity",
            "URINALYSIS",
            "1.004",
            "",
            "1.006",
            "1.03",
            "1.004",
            1.004,
            "",
            1.006,
            1.03,
            "LOW",
            "",
            4,
            "WEEK 2",
            14,
            "TREATMENT",
            "2012-09-17T11:48",
            11
          ],
          [
            153,
            "CDISCPILOT01",
            "LB",
            "01-701-1111",
            33,
            "TSH",
            "Thyrotropin",
            "OTHER",
            "1.25",
            "mIU/L",
            "0.32",
            "5",
            "1.25",
            1.25,
            "mU/L",
            0.32,
            5,
            "NORMAL",
            "Y",
            1,
            "SCREENING 1",
            -7,
            "SCREENING",
            "2012-08-25T15:25",
            -13
          ],
          [
            154,
            "CDISCPILOT01",
            "LB",
            "01-701-1111",
            35,
            "UROBIL",
            "Urobilinogen",
            "URINALYSIS",
            "0",
            "",
            "",
            "",
            "0",
            0,
            "",
            null,
            null,
            "NORMAL",
            "Y",
            1,
            "SCREENING 1",
            -7,
            "SCREENING",
            "2012-08-25T15:25",
            -13
          ],
          [
            155,
            "CDISCPILOT01",
            "LB",
            "01-701-1111",
            72,
            "UROBIL",
            "Urobilinogen",
            "URINALYSIS",
            "0",
            "",
            "",
            "",
            "0",
            0,
            "",
            null,
            null,
            "NORMAL",
            "",
            4,
            "WEEK 2",
            14,
            "TREATMENT",
            "2012-09-17T11:48",
            11
          ],
          [
            156,
            "CDISCPILOT01",
            "LB",
            "01-701-1111",
            36,
            "VITB12",
            "Vitamin B12",
            "OTHER",
            "527",
            "ng/L",
            "200",
            "900",
            "388.8206",
            388.8206,
            "pmol/L",
            148,
            664,
            "NORMAL",
            "Y",
            1,
            "SCREENING 1",
            -7,
            "SCREENING",
            "2012-08-25T15:25",
            -13
          ],
          [
            157,
            "CDISCPILOT01",
            "LB",
            "01-701-1115",
            12,
            "COLOR",
            "Color",
            "URINALYSIS",
            "N",
            "",
            "",
            "",
            "N",
            null,
            "",
            null,
            null,
            "NORMAL",
            "Y",
            1,
            "SCREENING 1",
            -7,
            "SCREENING",
            "2012-11-23T11:20",
            -7
          ],
          [
            158,
            "CDISCPILOT01",
            "LB",
            "01-701-1115",
            49,
            "COLOR",
            "Color",
            "URINALYSIS",
            "N",
            "",
            "",
            "",
            "N",
            null,
            "",
            null,
            null,
            "NORMAL",
            "",
            4,
            "WEEK 2",
            14,
            "TREATMENT",
            "2012-12-13T14:05",
            14
          ],
          [
            159,
            "CDISCPILOT01",
            "LB",
            "01-701-1115",
            159,
            "COLOR",
            "Color",
            "URINALYSIS",
            "N",
            "",
            "",
            "",
            "N",
            null,
            "",
            null,
            null,
            "NORMAL",
            "",
            8,
            "WEEK 8",
            56,
            "TREATMENT",
            "2013-01-23T12:13",
            55
          ],
          [
            160,
            "CDISCPILOT01",
            "LB",
            "01-701-1115",
            20,
            "KETONES",
            "Ketones",
            "URINALYSIS",
            "0",
            "",
            "",
            "",
            "0",
            0,
            "",
            null,
            null,
            "NORMAL",
            "Y",
            1,
            "SCREENING 1",
            -7,
            "SCREENING",
            "2012-11-23T11:20",
            -7
          ],
          [
            161,
            "CDISCPILOT01",
            "LB",
            "01-701-1115",
            57,
            "KETONES",
            "Ketones",
            "URINALYSIS",
            "0",
            "",
            "",
            "",
            "0",
            0,
            "",
            null,
            null,
            "NORMAL",
            "",
            4,
            "WEEK 2",
            14,
            "TREATMENT",
            "2012-12-13T14:05",
            14
          ],
          [
            162,
            "CDISCPILOT01",
            "LB",
            "01-701-1115",
            167,
            "KETONES",
            "Ketones",
            "URINALYSIS",
            "0",
            "",
            "",
            "",
            "0",
            0,
            "",
            null,
            null,
            "NORMAL",
            "",
            8,
            "WEEK 8",
            56,
            "TREATMENT",
            "2013-01-23T12:13",
            55
          ],
          [
            163,
            "CDISCPILOT01",
            "LB",
            "01-701-1115",
            27,
            "PH",
            "pH",
            "URINALYSIS",
            "5.0",
            "",
            "5",
            "8",
            "5",
            5,
            "",
            5,
            8,
            "NORMAL",
            "Y",
            1,
            "SCREENING 1",
            -7,
            "SCREENING",
            "2012-11-23T11:20",
            -7
          ],
          [
            164,
            "CDISCPILOT01",
            "LB",
            "01-701-1115",
            64,
            "PH",
            "pH",
            "URINALYSIS",
            "5.0",
            "",
            "5",
            "8",
            "5",
            5,
            "",
            5,
            8,
            "NORMAL",
            "",
            4,
            "WEEK 2",
            14,
            "TREATMENT",
            "2012-12-13T14:05",
            14
          ],
          [
            165,
            "CDISCPILOT01",
            "LB",
            "01-701-1115",
            174,
            "PH",
            "pH",
            "URINALYSIS",
            "5.0",
            "",
            "5",
            "8",
            "5",
            5,
            "",
            5,
            8,
            "NORMAL",
            "",
            8,
            "WEEK 8",
            56,
            "TREATMENT",
            "2013-01-23T12:13",
            55
          ],
          [
            166,
            "CDISCPILOT01",
            "LB",
            "01-701-1115",
            32,
            "SPGRAV",
            "Specific Gravity",
            "URINALYSIS",
            "1.017",
            "",
            "1.006",
            "1.03",
            "1.017",
            1.017,
            "",
            1.006,
            1.03,
            "NORMAL",
            "Y",
            1,
            "SCREENING 1",
            -7,
            "SCREENING",
            "2012-11-23T11:20",
            -7
          ],
          [
            167,
            "CDISCPILOT01",
            "LB",
            "01-701-1115",
            69,
            "SPGRAV",
            "Specific Gravity",
            "URINALYSIS",
            "1.023",
            "",
            "1.006",
            "1.03",
            "1.023",
            1.023,
            "",
            1.006,
            1.03,
            "NORMAL",
            "",
            4,
            "WEEK 2",
            14,
            "TREATMENT",
            "2012-12-13T14:05",
            14
          ],
          [
            168,
            "CDISCPILOT01",
            "LB",
            "01-701-1115",
            179,
            "SPGRAV",
            "Specific Gravity",
            "URINALYSIS",
            "1.023",
            "",
            "1.006",
            "1.03",
            "1.023",
            1.023,
            "",
            1.006,
            1.03,
            "NORMAL",
            "",
            8,
            "WEEK 8",
            56,
            "TREATMENT",
            "2013-01-23T12:13",
            55
          ],
          [
            169,
            "CDISCPILOT01",
            "LB",
            "01-701-1115",
            33,
            "TSH",
            "Thyrotropin",
            "OTHER",
            "2.63",
            "mIU/L",
            "0.32",
            "5",
            "2.63",
            2.63,
            "mU/L",
            0.32,
            5,
            "NORMAL",
            "Y",
            1,
            "SCREENING 1",
            -7,
            "SCREENING",
            "2012-11-23T11:20",
            -7
          ],
          [
            170,
            "CDISCPILOT01",
            "LB",
            "01-701-1115",
            35,
            "UROBIL",
            "Urobilinogen",
            "URINALYSIS",
            "0",
            "",
            "",
            "",
            "0",
            0,
            "",
            null,
            null,
            "NORMAL",
            "Y",
            1,
            "SCREENING 1",
            -7,
            "SCREENING",
            "2012-11-23T11:20",
            -7
          ],
          [
            171,
            "CDISCPILOT01",
            "LB",
            "01-701-1115",
            71,
            "UROBIL",
            "Urobilinogen",
            "URINALYSIS",
            "0",
            "",
            "",
            "",
            "0",
            0,
            "",
            null,
            null,
            "NORMAL",
            "",
            4,
            "WEEK 2",
            14,
            "TREATMENT",
            "2012-12-13T14:05",
            14
          ],
          [
            172,
            "CDISCPILOT01",
            "LB",
            "01-701-1115",
            181,
            "UROBIL",
            "Urobilinogen",
            "URINALYSIS",
            "0",
            "",
            "",
            "",
            "0",
            0,
            "",
            null,
            null,
            "NORMAL",
            "",
            8,
            "WEEK 8",
            56,
            "TREATMENT",
            "2013-01-23T12:13",
            55
          ],
          [
            173,
            "CDISCPILOT01",
            "LB",
            "01-701-1115",
            36,
            "VITB12",
            "Vitamin B12",
            "OTHER",
            "641",
            "ng/L",
            "200",
            "900",
            "472.9298",
            472.9298,
            "pmol/L",
            148,
            664,
            "NORMAL",
            "Y",
            1,
            "SCREENING 1",
            -7,
            "SCREENING",
            "2012-11-23T11:20",
            -7
          ],
          [
            174,
            "CDISCPILOT01",
            "LB",
            "01-701-1118",
            12,
            "COLOR",
            "Color",
            "URINALYSIS",
            "N",
            "",
            "",
            "",
            "N",
            null,
            "",
            null,
            null,
            "NORMAL",
            "Y",
            1,
            "SCREENING 1",
            -7,
            "SCREENING",
            "2014-02-27T10:32",
            -13
          ],
          [
            175,
            "CDISCPILOT01",
            "LB",
            "01-701-1118",
            49,
            "COLOR",
            "Color",
            "URINALYSIS",
            "N",
            "",
            "",
            "",
            "N",
            null,
            "",
            null,
            null,
            "NORMAL",
            "",
            4,
            "WEEK 2",
            14,
            "TREATMENT",
            "2014-03-26T10:50",
            15
          ],
          [
            176,
            "CDISCPILOT01",
            "LB",
            "01-701-1118",
            174,
            "COLOR",
            "Color",
            "URINALYSIS",
            "N",
            "",
            "",
            "",
            "N",
            null,
            "",
            null,
            null,
            "NORMAL",
            "",
            9,
            "WEEK 12",
            84,
            "TREATMENT",
            "2014-06-05T08:14",
            86
          ],
          [
            177,
            "CDISCPILOT01",
            "LB",
            "01-701-1118",
            269,
            "COLOR",
            "Color",
            "URINALYSIS",
            "N",
            "",
            "",
            "",
            "N",
            null,
            "",
            null,
            null,
            "NORMAL",
            "",
            12,
            "WEEK 24",
            168,
            "TREATMENT",
            "2014-08-27T11:27",
            169
          ],
          [
            178,
            "CDISCPILOT01",
            "LB",
            "01-701-1118",
            20,
            "KETONES",
            "Ketones",
            "URINALYSIS",
            "0",
            "",
            "",
            "",
            "0",
            0,
            "",
            null,
            null,
            "NORMAL",
            "Y",
            1,
            "SCREENING 1",
            -7,
            "SCREENING",
            "2014-02-27T10:32",
            -13
          ],
          [
            179,
            "CDISCPILOT01",
            "LB",
            "01-701-1118",
            57,
            "KETONES",
            "Ketones",
            "URINALYSIS",
            "0",
            "",
            "",
            "",
            "0",
            0,
            "",
            null,
            null,
            "NORMAL",
            "",
            4,
            "WEEK 2",
            14,
            "TREATMENT",
            "2014-03-26T10:50",
            15
          ],
          [
            180,
            "CDISCPILOT01",
            "LB",
            "01-701-1118",
            182,
            "KETONES",
            "Ketones",
            "URINALYSIS",
            "0",
            "",
            "",
            "",
            "0",
            0,
            "",
            null,
            null,
            "NORMAL",
            "",
            9,
            "WEEK 12",
            84,
            "TREATMENT",
            "2014-06-05T08:14",
            86
          ],
          [
            181,
            "CDISCPILOT01",
            "LB",
            "01-701-1118",
            277,
            "KETONES",
            "Ketones",
            "URINALYSIS",
            "0",
            "",
            "",
            "",
            "0",
            0,
            "",
            null,
            null,
            "NORMAL",
            "",
            12,
            "WEEK 24",
            168,
            "TREATMENT",
            "2014-08-27T11:27",
            169
          ],
          [
            182,
            "CDISCPILOT01",
            "LB",
            "01-701-1118",
            27,
            "PH",
            "pH",
            "URINALYSIS",
            "6.0",
            "",
            "5",
            "8",
            "6",
            6,
            "",
            5,
            8,
            "NORMAL",
            "Y",
            1,
            "SCREENING 1",
            -7,
            "SCREENING",
            "2014-02-27T10:32",
            -13
          ],
          [
            183,
            "CDISCPILOT01",
            "LB",
            "01-701-1118",
            64,
            "PH",
            "pH",
            "URINALYSIS",
            "6.0",
            "",
            "5",
            "8",
            "6",
            6,
            "",
            5,
            8,
            "NORMAL",
            "",
            4,
            "WEEK 2",
            14,
            "TREATMENT",
            "2014-03-26T10:50",
            15
          ],
          [
            184,
            "CDISCPILOT01",
            "LB",
            "01-701-1118",
            189,
            "PH",
            "pH",
            "URINALYSIS",
            "5.0",
            "",
            "5",
            "8",
            "5",
            5,
            "",
            5,
            8,
            "NORMAL",
            "",
            9,
            "WEEK 12",
            84,
            "TREATMENT",
            "2014-06-05T08:14",
            86
          ],
          [
            185,
            "CDISCPILOT01",
            "LB",
            "01-701-1118",
            284,
            "PH",
            "pH",
            "URINALYSIS",
            "6.0",
            "",
            "5",
            "8",
            "6",
            6,
            "",
            5,
            8,
            "NORMAL",
            "",
            12,
            "WEEK 24",
            168,
            "TREATMENT",
            "2014-08-27T11:27",
            169
          ],
          [
            186,
            "CDISCPILOT01",
            "LB",
            "01-701-1118",
            32,
            "SPGRAV",
            "Specific Gravity",
            "URINALYSIS",
            "1.030",
            "",
            "1.01",
            "1.034",
            "1.03",
            1.03,
            "",
            1.01,
            1.034,
            "NORMAL",
            "Y",
            1,
            "SCREENING 1",
            -7,
            "SCREENING",
            "2014-02-27T10:32",
            -13
          ],
          [
            187,
            "CDISCPILOT01",
            "LB",
            "01-701-1118",
            69,
            "SPGRAV",
            "Specific Gravity",
            "URINALYSIS",
            "1.033",
            "",
            "1.01",
            "1.034",
            "1.033",
            1.033,
            "",
            1.01,
            1.034,
            "NORMAL",
            "",
            4,
            "WEEK 2",
            14,
            "TREATMENT",
            "2014-03-26T10:50",
            15
          ],
          [
            188,
            "CDISCPILOT01",
            "LB",
            "01-701-1118",
            194,
            "SPGRAV",
            "Specific Gravity",
            "URINALYSIS",
            "1.030",
            "",
            "1.01",
            "1.034",
            "1.03",
            1.03,
            "",
            1.01,
            1.034,
            "NORMAL",
            "",
            9,
            "WEEK 12",
            84,
            "TREATMENT",
            "2014-06-05T08:14",
            86
          ],
          [
            189,
            "CDISCPILOT01",
            "LB",
            "01-701-1118",
            289,
            "SPGRAV",
            "Specific Gravity",
            "URINALYSIS",
            "1.026",
            "",
            "1.01",
            "1.034",
            "1.026",
            1.026,
            "",
            1.01,
            1.034,
            "NORMAL",
            "",
            12,
            "WEEK 24",
            168,
            "TREATMENT",
            "2014-08-27T11:27",
            169
          ],
          [
            190,
            "CDISCPILOT01",
            "LB",
            "01-701-1118",
            33,
            "TSH",
            "Thyrotropin",
            "OTHER",
            "1.85",
            "mIU/L",
            "0.32",
            "5",
            "1.85",
            1.85,
            "mU/L",
            0.32,
            5,
            "NORMAL",
            "Y",
            1,
            "SCREENING 1",
            -7,
            "SCREENING",
            "2014-02-27T10:32",
            -13
          ],
          [
            191,
            "CDISCPILOT01",
            "LB",
            "01-701-1118",
            35,
            "UROBIL",
            "Urobilinogen",
            "URINALYSIS",
            "0",
            "",
            "",
            "",
            "0",
            0,
            "",
            null,
            null,
            "NORMAL",
            "Y",
            1,
            "SCREENING 1",
            -7,
            "SCREENING",
            "2014-02-27T10:32",
            -13
          ],
          [
            192,
            "CDISCPILOT01",
            "LB",
            "01-701-1118",
            71,
            "UROBIL",
            "Urobilinogen",
            "URINALYSIS",
            "0",
            "",
            "",
            "",
            "0",
            0,
            "",
            null,
            null,
            "NORMAL",
            "",
            4,
            "WEEK 2",
            14,
            "TREATMENT",
            "2014-03-26T10:50",
            15
          ],
          [
            193,
            "CDISCPILOT01",
            "LB",
            "01-701-1118",
            196,
            "UROBIL",
            "Urobilinogen",
            "URINALYSIS",
            "0",
            "",
            "",
            "",
            "0",
            0,
            "",
            null,
            null,
            "NORMAL",
            "",
            9,
            "WEEK 12",
            84,
            "TREATMENT",
            "2014-06-05T08:14",
            86
          ],
          [
            194,
            "CDISCPILOT01",
            "LB",
            "01-701-1118",
            291,
            "UROBIL",
            "Urobilinogen",
            "URINALYSIS",
            "0",
            "",
            "",
            "",
            "0",
            0,
            "",
            null,
            null,
            "NORMAL",
            "",
            12,
            "WEEK 24",
            168,
            "TREATMENT",
            "2014-08-27T11:27",
            169
          ],
          [
            195,
            "CDISCPILOT01",
            "LB",
            "01-701-1118",
            36,
            "VITB12",
            "Vitamin B12",
            "OTHER",
            "289",
            "ng/L",
            "200",
            "900",
            "213.2242",
            213.2242,
            "pmol/L",
            148,
            664,
            "NORMAL",
            "Y",
            1,
            "SCREENING 1",
            -7,
            "SCREENING",
            "2014-02-27T10:32",
            -13
          ],
          [
            196,
            "CDISCPILOT01",
            "LB",
            "01-701-1130",
            12,
            "COLOR",
            "Color",
            "URINALYSIS",
            "N",
            "",
            "",
            "",
            "N",
            null,
            "",
            null,
            null,
            "NORMAL",
            "Y",
            1,
            "SCREENING 1",
            -7,
            "SCREENING",
            "2014-02-09T12:01",
            -6
          ],
          [
            197,
            "CDISCPILOT01",
            "LB",
            "01-701-1130",
            49,
            "COLOR",
            "Color",
            "URINALYSIS",
            "N",
            "",
            "",
            "",
            "N",
            null,
            "",
            null,
            null,
            "NORMAL",
            "",
            4,
            "WEEK 2",
            14,
            "TREATMENT",
            "2014-03-01T08:30",
            15
          ],
          [
            198,
            "CDISCPILOT01",
            "LB",
            "01-701-1130",
            174,
            "COLOR",
            "Color",
            "URINALYSIS",
            "N",
            "",
            "",
            "",
            "N",
            null,
            "",
            null,
            null,
            "NORMAL",
            "",
            9,
            "WEEK 12",
            84,
            "TREATMENT",
            "2014-05-16T11:37",
            91
          ],
          [
            199,
            "CDISCPILOT01",
            "LB",
            "01-701-1130",
            269,
            "COLOR",
            "Color",
            "URINALYSIS",
            "N",
            "",
            "",
            "",
            "N",
            null,
            "",
            null,
            null,
            "NORMAL",
            "",
            12,
            "WEEK 24",
            168,
            "TREATMENT",
            "2014-08-02T13:50",
            169
          ],
          [
            200,
            "CDISCPILOT01",
            "LB",
            "01-701-1130",
            20,
            "KETONES",
            "Ketones",
            "URINALYSIS",
            "0",
            "",
            "",
            "",
            "0",
            0,
            "",
            null,
            null,
            "NORMAL",
            "Y",
            1,
            "SCREENING 1",
            -7,
            "SCREENING",
            "2014-02-09T12:01",
            -6
          ],
          [
            201,
            "CDISCPILOT01",
            "LB",
            "01-701-1130",
            57,
            "KETONES",
            "Ketones",
            "URINALYSIS",
            "0",
            "",
            "",
            "",
            "0",
            0,
            "",
            null,
            null,
            "NORMAL",
            "",
            4,
            "WEEK 2",
            14,
            "TREATMENT",
            "2014-03-01T08:30",
            15
          ],
          [
            202,
            "CDISCPILOT01",
            "LB",
            "01-701-1130",
            182,
            "KETONES",
            "Ketones",
            "URINALYSIS",
            "0",
            "",
            "",
            "",
            "0",
            0,
            "",
            null,
            null,
            "NORMAL",
            "",
            9,
            "WEEK 12",
            84,
            "TREATMENT",
            "2014-05-16T11:37",
            91
          ],
          [
            203,
            "CDISCPILOT01",
            "LB",
            "01-701-1130",
            277,
            "KETONES",
            "Ketones",
            "URINALYSIS",
            "0",
            "",
            "",
            "",
            "0",
            0,
            "",
            null,
            null,
            "NORMAL",
            "",
            12,
            "WEEK 24",
            168,
            "TREATMENT",
            "2014-08-02T13:50",
            169
          ],
          [
            204,
            "CDISCPILOT01",
            "LB",
            "01-701-1130",
            27,
            "PH",
            "pH",
            "URINALYSIS",
            "5.0",
            "",
            "5",
            "8",
            "5",
            5,
            "",
            5,
            8,
            "NORMAL",
            "Y",
            1,
            "SCREENING 1",
            -7,
            "SCREENING",
            "2014-02-09T12:01",
            -6
          ],
          [
            205,
            "CDISCPILOT01",
            "LB",
            "01-701-1130",
            64,
            "PH",
            "pH",
            "URINALYSIS",
            "5.0",
            "",
            "5",
            "8",
            "5",
            5,
            "",
            5,
            8,
            "NORMAL",
            "",
            4,
            "WEEK 2",
            14,
            "TREATMENT",
            "2014-03-01T08:30",
            15
          ],
          [
            206,
            "CDISCPILOT01",
            "LB",
            "01-701-1130",
            189,
            "PH",
            "pH",
            "URINALYSIS",
            "5.0",
            "",
            "5",
            "8",
            "5",
            5,
            "",
            5,
            8,
            "NORMAL",
            "",
            9,
            "WEEK 12",
            84,
            "TREATMENT",
            "2014-05-16T11:37",
            91
          ],
          [
            207,
            "CDISCPILOT01",
            "LB",
            "01-701-1130",
            284,
            "PH",
            "pH",
            "URINALYSIS",
            "6.0",
            "",
            "5",
            "8",
            "6",
            6,
            "",
            5,
            8,
            "NORMAL",
            "",
            12,
            "WEEK 24",
            168,
            "TREATMENT",
            "2014-08-02T13:50",
            169
          ],
          [
            208,
            "CDISCPILOT01",
            "LB",
            "01-701-1130",
            32,
            "SPGRAV",
            "Specific Gravity",
            "URINALYSIS",
            "1.018",
            "",
            "1.006",
            "1.03",
            "1.018",
            1.018,
            "",
            1.006,
            1.03,
            "NORMAL",
            "Y",
            1,
            "SCREENING 1",
            -7,
            "SCREENING",
            "2014-02-09T12:01",
            -6
          ],
          [
            209,
            "CDISCPILOT01",
            "LB",
            "01-701-1130",
            69,
            "SPGRAV",
            "Specific Gravity",
            "URINALYSIS",
            "1.018",
            "",
            "1.006",
            "1.03",
            "1.018",
            1.018,
            "",
            1.006,
            1.03,
            "NORMAL",
            "",
            4,
            "WEEK 2",
            14,
            "TREATMENT",
            "2014-03-01T08:30",
            15
          ],
          [
            210,
            "CDISCPILOT01",
            "LB",
            "01-701-1130",
            194,
            "SPGRAV",
            "Specific Gravity",
            "URINALYSIS",
            "1.016",
            "",
            "1.006",
            "1.03",
            "1.016",
            1.016,
            "",
            1.006,
            1.03,
            "NORMAL",
            "",
            9,
            "WEEK 12",
            84,
            "TREATMENT",
            "2014-05-16T11:37",
            91
          ],
          [
            211,
            "CDISCPILOT01",
            "LB",
            "01-701-1130",
            289,
            "SPGRAV",
            "Specific Gravity",
            "URINALYSIS",
            "1.016",
            "",
            "1.006",
            "1.03",
            "1.016",
            1.016,
            "",
            1.006,
            1.03,
            "NORMAL",
            "",
            12,
            "WEEK 24",
            168,
            "TREATMENT",
            "2014-08-02T13:50",
            169
          ],
          [
            212,
            "CDISCPILOT01",
            "LB",
            "01-701-1130",
            33,
            "TSH",
            "Thyrotropin",
            "OTHER",
            "3.59",
            "mIU/L",
            "0.32",
            "5",
            "3.59",
            3.59,
            "mU/L",
            0.32,
            5,
            "NORMAL",
            "Y",
            1,
            "SCREENING 1",
            -7,
            "SCREENING",
            "2014-02-09T12:01",
            -6
          ],
          [
            213,
            "CDISCPILOT01",
            "LB",
            "01-701-1130",
            35,
            "UROBIL",
            "Urobilinogen",
            "URINALYSIS",
            "0",
            "",
            "",
            "",
            "0",
            0,
            "",
            null,
            null,
            "NORMAL",
            "Y",
            1,
            "SCREENING 1",
            -7,
            "SCREENING",
            "2014-02-09T12:01",
            -6
          ],
          [
            214,
            "CDISCPILOT01",
            "LB",
            "01-701-1130",
            71,
            "UROBIL",
            "Urobilinogen",
            "URINALYSIS",
            "0",
            "",
            "",
            "",
            "0",
            0,
            "",
            null,
            null,
            "NORMAL",
            "",
            4,
            "WEEK 2",
            14,
            "TREATMENT",
            "2014-03-01T08:30",
            15
          ],
          [
            215,
            "CDISCPILOT01",
            "LB",
            "01-701-1130",
            196,
            "UROBIL",
            "Urobilinogen",
            "URINALYSIS",
            "0",
            "",
            "",
            "",
            "0",
            0,
            "",
            null,
            null,
            "NORMAL",
            "",
            9,
            "WEEK 12",
            84,
            "TREATMENT",
            "2014-05-16T11:37",
            91
          ],
          [
            216,
            "CDISCPILOT01",
            "LB",
            "01-701-1130",
            291,
            "UROBIL",
            "Urobilinogen",
            "URINALYSIS",
            "0",
            "",
            "",
            "",
            "0",
            0,
            "",
            null,
            null,
            "NORMAL",
            "",
            12,
            "WEEK 24",
            168,
            "TREATMENT",
            "2014-08-02T13:50",
            169
          ],
          [
            217,
            "CDISCPILOT01",
            "LB",
            "01-701-1130",
            36,
            "VITB12",
            "Vitamin B12",
            "OTHER",
            "355",
            "ng/L",
            "200",
            "900",
            "261.919",
            261.919,
            "pmol/L",
            148,
            664,
            "NORMAL",
            "Y",
            1,
            "SCREENING 1",
            -7,
            "SCREENING",
            "2014-02-09T12:01",
            -6
          ],
          [
            218,
            "CDISCPILOT01",
            "LB",
            "01-701-1133",
            12,
            "COLOR",
            "Color",
            "URINALYSIS",
            "N",
            "",
            "",
            "",
            "N",
            null,
            "",
            null,
            null,
            "NORMAL",
            "Y",
            1,
            "SCREENING 1",
            -7,
            "SCREENING",
            "2012-10-23T10:57",
            -5
          ],
          [
            219,
            "CDISCPILOT01",
            "LB",
            "01-701-1133",
            39,
            "COLOR",
            "Color",
            "URINALYSIS",
            "N",
            "",
            "",
            "",
            "N",
            null,
            "",
            null,
            null,
            "NORMAL",
            "",
            4,
            "WEEK 2",
            14,
            "TREATMENT",
            "2012-11-12T10:15",
            16
          ],
          [
            220,
            "CDISCPILOT01",
            "LB",
            "01-701-1133",
            156,
            "COLOR",
            "Color",
            "URINALYSIS",
            "N",
            "",
            "",
            "",
            "N",
            null,
            "",
            null,
            null,
            "NORMAL",
            "",
            9,
            "WEEK 12",
            84,
            "TREATMENT",
            "2013-01-22T14:05",
            87
          ],
          [
            221,
            "CDISCPILOT01",
            "LB",
            "01-701-1133",
            251,
            "COLOR",
            "Color",
            "URINALYSIS",
            "N",
            "",
            "",
            "",
            "N",
            null,
            "",
            null,
            null,
            "NORMAL",
            "",
            12,
            "WEEK 24",
            168,
            "TREATMENT",
            "2013-04-18T15:30",
            173
          ],
          [
            222,
            "CDISCPILOT01",
            "LB",
            "01-701-1133",
            20,
            "KETONES",
            "Ketones",
            "URINALYSIS",
            "0",
            "",
            "",
            "",
            "0",
            0,
            "",
            null,
            null,
            "NORMAL",
            "Y",
            1,
            "SCREENING 1",
            -7,
            "SCREENING",
            "2012-10-23T10:57",
            -5
          ],
          [
            223,
            "CDISCPILOT01",
            "LB",
            "01-701-1133",
            43,
            "KETONES",
            "Ketones",
            "URINALYSIS",
            "0",
            "",
            "",
            "",
            "0",
            0,
            "",
            null,
            null,
            "NORMAL",
            "",
            4,
            "WEEK 2",
            14,
            "TREATMENT",
            "2012-11-12T10:15",
            16
          ],
          [
            224,
            "CDISCPILOT01",
            "LB",
            "01-701-1133",
            164,
            "KETONES",
            "Ketones",
            "URINALYSIS",
            "0",
            "",
            "",
            "",
            "0",
            0,
            "",
            null,
            null,
            "NORMAL",
            "",
            9,
            "WEEK 12",
            84,
            "TREATMENT",
            "2013-01-22T14:05",
            87
          ],
          [
            225,
            "CDISCPILOT01",
            "LB",
            "01-701-1133",
            259,
            "KETONES",
            "Ketones",
            "URINALYSIS",
            "0",
            "",
            "",
            "",
            "0",
            0,
            "",
            null,
            null,
            "NORMAL",
            "",
            12,
            "WEEK 24",
            168,
            "TREATMENT",
            "2013-04-18T15:30",
            173
          ],
          [
            226,
            "CDISCPILOT01",
            "LB",
            "01-701-1133",
            27,
            "PH",
            "pH",
            "URINALYSIS",
            "5.0",
            "",
            "5",
            "8",
            "5",
            5,
            "",
            5,
            8,
            "NORMAL",
            "Y",
            1,
            "SCREENING 1",
            -7,
            "SCREENING",
            "2012-10-23T10:57",
            -5
          ],
          [
            227,
            "CDISCPILOT01",
            "LB",
            "01-701-1133",
            49,
            "PH",
            "pH",
            "URINALYSIS",
            "5.0",
            "",
            "5",
            "8",
            "5",
            5,
            "",
            5,
            8,
            "NORMAL",
            "",
            4,
            "WEEK 2",
            14,
            "TREATMENT",
            "2012-11-12T10:15",
            16
          ],
          [
            228,
            "CDISCPILOT01",
            "LB",
            "01-701-1133",
            171,
            "PH",
            "pH",
            "URINALYSIS",
            "5.0",
            "",
            "5",
            "8",
            "5",
            5,
            "",
            5,
            8,
            "NORMAL",
            "",
            9,
            "WEEK 12",
            84,
            "TREATMENT",
            "2013-01-22T14:05",
            87
          ],
          [
            229,
            "CDISCPILOT01",
            "LB",
            "01-701-1133",
            266,
            "PH",
            "pH",
            "URINALYSIS",
            "6.0",
            "",
            "5",
            "8",
            "6",
            6,
            "",
            5,
            8,
            "NORMAL",
            "",
            12,
            "WEEK 24",
            168,
            "TREATMENT",
            "2013-04-18T15:30",
            173
          ],
          [
            230,
            "CDISCPILOT01",
            "LB",
            "01-701-1133",
            32,
            "SPGRAV",
            "Specific Gravity",
            "URINALYSIS",
            "1.011",
            "",
            "1.006",
            "1.03",
            "1.011",
            1.011,
            "",
            1.006,
            1.03,
            "NORMAL",
            "Y",
            1,
            "SCREENING 1",
            -7,
            "SCREENING",
            "2012-10-23T10:57",
            -5
          ],
          [
            231,
            "CDISCPILOT01",
            "LB",
            "01-701-1133",
            52,
            "SPGRAV",
            "Specific Gravity",
            "URINALYSIS",
            "1.023",
            "",
            "1.006",
            "1.03",
            "1.023",
            1.023,
            "",
            1.006,
            1.03,
            "NORMAL",
            "",
            4,
            "WEEK 2",
            14,
            "TREATMENT",
            "2012-11-12T10:15",
            16
          ],
          [
            232,
            "CDISCPILOT01",
            "LB",
            "01-701-1133",
            176,
            "SPGRAV",
            "Specific Gravity",
            "URINALYSIS",
            "1.030",
            "",
            "1.006",
            "1.03",
            "1.03",
            1.03,
            "",
            1.006,
            1.03,
            "NORMAL",
            "",
            9,
            "WEEK 12",
            84,
            "TREATMENT",
            "2013-01-22T14:05",
            87
          ],
          [
            233,
            "CDISCPILOT01",
            "LB",
            "01-701-1133",
            271,
            "SPGRAV",
            "Specific Gravity",
            "URINALYSIS",
            "1.029",
            "",
            "1.006",
            "1.03",
            "1.029",
            1.029,
            "",
            1.006,
            1.03,
            "NORMAL",
            "",
            12,
            "WEEK 24",
            168,
            "TREATMENT",
            "2013-04-18T15:30",
            173
          ],
          [
            234,
            "CDISCPILOT01",
            "LB",
            "01-701-1133",
            33,
            "TSH",
            "Thyrotropin",
            "OTHER",
            "1.09",
            "mIU/L",
            "0.32",
            "5",
            "1.09",
            1.09,
            "mU/L",
            0.32,
            5,
            "NORMAL",
            "Y",
            1,
            "SCREENING 1",
            -7,
            "SCREENING",
            "2012-10-23T10:57",
            -5
          ],
          [
            235,
            "CDISCPILOT01",
            "LB",
            "01-701-1133",
            35,
            "UROBIL",
            "Urobilinogen",
            "URINALYSIS",
            "0",
            "",
            "",
            "",
            "0",
            0,
            "",
            null,
            null,
            "NORMAL",
            "Y",
            1,
            "SCREENING 1",
            -7,
            "SCREENING",
            "2012-10-23T10:57",
            -5
          ],
          [
            236,
            "CDISCPILOT01",
            "LB",
            "01-701-1133",
            53,
            "UROBIL",
            "Urobilinogen",
            "URINALYSIS",
            "0",
            "",
            "",
            "",
            "0",
            0,
            "",
            null,
            null,
            "NORMAL",
            "",
            4,
            "WEEK 2",
            14,
            "TREATMENT",
            "2012-11-12T10:15",
            16
          ],
          [
            237,
            "CDISCPILOT01",
            "LB",
            "01-701-1133",
            178,
            "UROBIL",
            "Urobilinogen",
            "URINALYSIS",
            "0",
            "",
            "",
            "",
            "0",
            0,
            "",
            null,
            null,
            "NORMAL",
            "",
            9,
            "WEEK 12",
            84,
            "TREATMENT",
            "2013-01-22T14:05",
            87
          ],
          [
            238,
            "CDISCPILOT01",
            "LB",
            "01-701-1133",
            273,
            "UROBIL",
            "Urobilinogen",
            "URINALYSIS",
            "0",
            "",
            "",
            "",
            "0",
            0,
            "",
            null,
            null,
            "NORMAL",
            "",
            12,
            "WEEK 24",
            168,
            "TREATMENT",
            "2013-04-18T15:30",
            173
          ],
          [
            239,
            "CDISCPILOT01",
            "LB",
            "01-701-1133",
            36,
            "VITB12",
            "Vitamin B12",
            "OTHER",
            "288",
            "ng/L",
            "200",
            "900",
            "212.4864",
            212.4864,
            "pmol/L",
            148,
            664,
            "NORMAL",
            "Y",
            1,
            "SCREENING 1",
            -7,
            "SCREENING",
            "2012-10-23T10:57",
            -5
          ],
          [
            240,
            "CDISCPILOT01",
            "LB",
            "01-701-1146",
            12,
            "COLOR",
            "Color",
            "URINALYSIS",
            "N",
            "",
            "",
            "",
            "N",
            null,
            "",
            null,
            null,
            "NORMAL",
            "Y",
            1,
            "SCREENING 1",
            -7,
            "SCREENING",
            "2013-05-07T13:52",
            -13
          ],
          [
            241,
            "CDISCPILOT01",
            "LB",
            "01-701-1146",
            49,
            "COLOR",
            "Color",
            "URINALYSIS",
            "N",
            "",
            "",
            "",
            "N",
            null,
            "",
            null,
            null,
            "NORMAL",
            "",
            4,
            "WEEK 2",
            14,
            "TREATMENT",
            "2013-06-03T13:16",
            15
          ],
          [
            242,
            "CDISCPILOT01",
            "LB",
            "01-701-1146",
            114,
            "COLOR",
            "Color",
            "URINALYSIS",
            "N",
            "",
            "",
            "",
            "N",
            null,
            "",
            null,
            null,
            "NORMAL",
            "",
            7,
            "WEEK 6",
            42,
            "TREATMENT",
            "2013-06-30T11:44",
            42
          ],
          [
            243,
            "CDISCPILOT01",
            "LB",
            "01-701-1146",
            20,
            "KETONES",
            "Ketones",
            "URINALYSIS",
            "0",
            "",
            "",
            "",
            "0",
            0,
            "",
            null,
            null,
            "NORMAL",
            "Y",
            1,
            "SCREENING 1",
            -7,
            "SCREENING",
            "2013-05-07T13:52",
            -13
          ],
          [
            244,
            "CDISCPILOT01",
            "LB",
            "01-701-1146",
            57,
            "KETONES",
            "Ketones",
            "URINALYSIS",
            "0",
            "",
            "",
            "",
            "0",
            0,
            "",
            null,
            null,
            "NORMAL",
            "",
            4,
            "WEEK 2",
            14,
            "TREATMENT",
            "2013-06-03T13:16",
            15
          ],
          [
            245,
            "CDISCPILOT01",
            "LB",
            "01-701-1146",
            122,
            "KETONES",
            "Ketones",
            "URINALYSIS",
            "0",
            "",
            "",
            "",
            "0",
            0,
            "",
            null,
            null,
            "NORMAL",
            "",
            7,
            "WEEK 6",
            42,
            "TREATMENT",
            "2013-06-30T11:44",
            42
          ],
          [
            246,
            "CDISCPILOT01",
            "LB",
            "01-701-1146",
            27,
            "PH",
            "pH",
            "URINALYSIS",
            "5.0",
            "",
            "5",
            "8",
            "5",
            5,
            "",
            5,
            8,
            "NORMAL",
            "Y",
            1,
            "SCREENING 1",
            -7,
            "SCREENING",
            "2013-05-07T13:52",
            -13
          ],
          [
            247,
            "CDISCPILOT01",
            "LB",
            "01-701-1146",
            64,
            "PH",
            "pH",
            "URINALYSIS",
            "5.0",
            "",
            "5",
            "8",
            "5",
            5,
            "",
            5,
            8,
            "NORMAL",
            "",
            4,
            "WEEK 2",
            14,
            "TREATMENT",
            "2013-06-03T13:16",
            15
          ],
          [
            248,
            "CDISCPILOT01",
            "LB",
            "01-701-1146",
            129,
            "PH",
            "pH",
            "URINALYSIS",
            "5.0",
            "",
            "5",
            "8",
            "5",
            5,
            "",
            5,
            8,
            "NORMAL",
            "",
            7,
            "WEEK 6",
            42,
            "TREATMENT",
            "2013-06-30T11:44",
            42
          ],
          [
            249,
            "CDISCPILOT01",
            "LB",
            "01-701-1146",
            32,
            "SPGRAV",
            "Specific Gravity",
            "URINALYSIS",
            "1.008",
            "",
            "1.006",
            "1.03",
            "1.008",
            1.008,
            "",
            1.006,
            1.03,
            "NORMAL",
            "Y",
            1,
            "SCREENING 1",
            -7,
            "SCREENING",
            "2013-05-07T13:52",
            -13
          ],
          [
            250,
            "CDISCPILOT01",
            "LB",
            "01-701-1146",
            69,
            "SPGRAV",
            "Specific Gravity",
            "URINALYSIS",
            "1.011",
            "",
            "1.006",
            "1.03",
            "1.011",
            1.011,
            "",
            1.006,
            1.03,
            "NORMAL",
            "",
            4,
            "WEEK 2",
            14,
            "TREATMENT",
            "2013-06-03T13:16",
            15
          ],
          [
            251,
            "CDISCPILOT01",
            "LB",
            "01-701-1146",
            134,
            "SPGRAV",
            "Specific Gravity",
            "URINALYSIS",
            "1.014",
            "",
            "1.006",
            "1.03",
            "1.014",
            1.014,
            "",
            1.006,
            1.03,
            "NORMAL",
            "",
            7,
            "WEEK 6",
            42,
            "TREATMENT",
            "2013-06-30T11:44",
            42
          ],
          [
            252,
            "CDISCPILOT01",
            "LB",
            "01-701-1146",
            33,
            "TSH",
            "Thyrotropin",
            "OTHER",
            "1.98",
            "mIU/L",
            "0.32",
            "5",
            "1.98",
            1.98,
            "mU/L",
            0.32,
            5,
            "NORMAL",
            "Y",
            1,
            "SCREENING 1",
            -7,
            "SCREENING",
            "2013-05-07T13:52",
            -13
          ],
          [
            253,
            "CDISCPILOT01",
            "LB",
            "01-701-1146",
            35,
            "UROBIL",
            "Urobilinogen",
            "URINALYSIS",
            "0",
            "",
            "",
            "",
            "0",
            0,
            "",
            null,
            null,
            "NORMAL",
            "Y",
            1,
            "SCREENING 1",
            -7,
            "SCREENING",
            "2013-05-07T13:52",
            -13
          ],
          [
            254,
            "CDISCPILOT01",
            "LB",
            "01-701-1146",
            71,
            "UROBIL",
            "Urobilinogen",
            "URINALYSIS",
            "0",
            "",
            "",
            "",
            "0",
            0,
            "",
            null,
            null,
            "NORMAL",
            "",
            4,
            "WEEK 2",
            14,
            "TREATMENT",
            "2013-06-03T13:16",
            15
          ],
          [
            255,
            "CDISCPILOT01",
            "LB",
            "01-701-1146",
            136,
            "UROBIL",
            "Urobilinogen",
            "URINALYSIS",
            "0",
            "",
            "",
            "",
            "0",
            0,
            "",
            null,
            null,
            "NORMAL",
            "",
            7,
            "WEEK 6",
            42,
            "TREATMENT",
            "2013-06-30T11:44",
            42
          ],
          [
            256,
            "CDISCPILOT01",
            "LB",
            "01-701-1146",
            36,
            "VITB12",
            "Vitamin B12",
            "OTHER",
            "381",
            "ng/L",
            "200",
            "900",
            "281.1018",
            281.1018,
            "pmol/L",
            148,
            664,
            "NORMAL",
            "Y",
            1,
            "SCREENING 1",
            -7,
            "SCREENING",
            "2013-05-07T13:52",
            -13
          ],
          [
            257,
            "CDISCPILOT01",
            "LB",
            "01-701-1148",
            12,
            "COLOR",
            "Color",
            "URINALYSIS",
            "N",
            "",
            "",
            "",
            "N",
            null,
            "",
            null,
            null,
            "NORMAL",
            "Y",
            1,
            "SCREENING 1",
            -7,
            "SCREENING",
            "2013-08-14T13:04",
            -9
          ],
          [
            258,
            "CDISCPILOT01",
            "LB",
            "01-701-1148",
            49,
            "COLOR",
            "Color",
            "URINALYSIS",
            "N",
            "",
            "",
            "",
            "N",
            null,
            "",
            null,
            null,
            "NORMAL",
            "",
            4,
            "WEEK 2",
            14,
            "TREATMENT",
            "2013-09-05T15:43",
            14
          ],
          [
            259,
            "CDISCPILOT01",
            "LB",
            "01-701-1148",
            174,
            "COLOR",
            "Color",
            "URINALYSIS",
            "N",
            "",
            "",
            "",
            "N",
            null,
            "",
            null,
            null,
            "NORMAL",
            "",
            9,
            "WEEK 12",
            84,
            "TREATMENT",
            "2013-11-17T10:59",
            87
          ],
          [
            260,
            "CDISCPILOT01",
            "LB",
            "01-701-1148",
            269,
            "COLOR",
            "Color",
            "URINALYSIS",
            "N",
            "",
            "",
            "",
            "N",
            null,
            "",
            null,
            null,
            "NORMAL",
            "",
            12,
            "WEEK 24",
            168,
            "TREATMENT",
            "2014-02-08T14:40",
            170
          ],
          [
            261,
            "CDISCPILOT01",
            "LB",
            "01-701-1148",
            20,
            "KETONES",
            "Ketones",
            "URINALYSIS",
            "0",
            "",
            "",
            "",
            "0",
            0,
            "",
            null,
            null,
            "NORMAL",
            "Y",
            1,
            "SCREENING 1",
            -7,
            "SCREENING",
            "2013-08-14T13:04",
            -9
          ],
          [
            262,
            "CDISCPILOT01",
            "LB",
            "01-701-1148",
            57,
            "KETONES",
            "Ketones",
            "URINALYSIS",
            "0",
            "",
            "",
            "",
            "0",
            0,
            "",
            null,
            null,
            "NORMAL",
            "",
            4,
            "WEEK 2",
            14,
            "TREATMENT",
            "2013-09-05T15:43",
            14
          ],
          [
            263,
            "CDISCPILOT01",
            "LB",
            "01-701-1148",
            182,
            "KETONES",
            "Ketones",
            "URINALYSIS",
            "0",
            "",
            "",
            "",
            "0",
            0,
            "",
            null,
            null,
            "NORMAL",
            "",
            9,
            "WEEK 12",
            84,
            "TREATMENT",
            "2013-11-17T10:59",
            87
          ],
          [
            264,
            "CDISCPILOT01",
            "LB",
            "01-701-1148",
            277,
            "KETONES",
            "Ketones",
            "URINALYSIS",
            "0",
            "",
            "",
            "",
            "0",
            0,
            "",
            null,
            null,
            "NORMAL",
            "",
            12,
            "WEEK 24",
            168,
            "TREATMENT",
            "2014-02-08T14:40",
            170
          ],
          [
            265,
            "CDISCPILOT01",
            "LB",
            "01-701-1148",
            27,
            "PH",
            "pH",
            "URINALYSIS",
            "5.0",
            "",
            "5",
            "8",
            "5",
            5,
            "",
            5,
            8,
            "NORMAL",
            "Y",
            1,
            "SCREENING 1",
            -7,
            "SCREENING",
            "2013-08-14T13:04",
            -9
          ],
          [
            266,
            "CDISCPILOT01",
            "LB",
            "01-701-1148",
            64,
            "PH",
            "pH",
            "URINALYSIS",
            "7.0",
            "",
            "5",
            "8",
            "7",
            7,
            "",
            5,
            8,
            "NORMAL",
            "",
            4,
            "WEEK 2",
            14,
            "TREATMENT",
            "2013-09-05T15:43",
            14
          ],
          [
            267,
            "CDISCPILOT01",
            "LB",
            "01-701-1148",
            189,
            "PH",
            "pH",
            "URINALYSIS",
            "5.0",
            "",
            "5",
            "8",
            "5",
            5,
            "",
            5,
            8,
            "NORMAL",
            "",
            9,
            "WEEK 12",
            84,
            "TREATMENT",
            "2013-11-17T10:59",
            87
          ],
          [
            268,
            "CDISCPILOT01",
            "LB",
            "01-701-1148",
            284,
            "PH",
            "pH",
            "URINALYSIS",
            "5.0",
            "",
            "5",
            "8",
            "5",
            5,
            "",
            5,
            8,
            "NORMAL",
            "",
            12,
            "WEEK 24",
            168,
            "TREATMENT",
            "2014-02-08T14:40",
            170
          ],
          [
            269,
            "CDISCPILOT01",
            "LB",
            "01-701-1148",
            32,
            "SPGRAV",
            "Specific Gravity",
            "URINALYSIS",
            "1.026",
            "",
            "1.01",
            "1.034",
            "1.026",
            1.026,
            "",
            1.01,
            1.034,
            "NORMAL",
            "Y",
            1,
            "SCREENING 1",
            -7,
            "SCREENING",
            "2013-08-14T13:04",
            -9
          ],
          [
            270,
            "CDISCPILOT01",
            "LB",
            "01-701-1148",
            69,
            "SPGRAV",
            "Specific Gravity",
            "URINALYSIS",
            "1.016",
            "",
            "1.01",
            "1.034",
            "1.016",
            1.016,
            "",
            1.01,
            1.034,
            "NORMAL",
            "",
            4,
            "WEEK 2",
            14,
            "TREATMENT",
            "2013-09-05T15:43",
            14
          ],
          [
            271,
            "CDISCPILOT01",
            "LB",
            "01-701-1148",
            194,
            "SPGRAV",
            "Specific Gravity",
            "URINALYSIS",
            "1.017",
            "",
            "1.01",
            "1.034",
            "1.017",
            1.017,
            "",
            1.01,
            1.034,
            "NORMAL",
            "",
            9,
            "WEEK 12",
            84,
            "TREATMENT",
            "2013-11-17T10:59",
            87
          ],
          [
            272,
            "CDISCPILOT01",
            "LB",
            "01-701-1148",
            289,
            "SPGRAV",
            "Specific Gravity",
            "URINALYSIS",
            "1.020",
            "",
            "1.01",
            "1.034",
            "1.02",
            1.02,
            "",
            1.01,
            1.034,
            "NORMAL",
            "",
            12,
            "WEEK 24",
            168,
            "TREATMENT",
            "2014-02-08T14:40",
            170
          ],
          [
            273,
            "CDISCPILOT01",
            "LB",
            "01-701-1148",
            33,
            "TSH",
            "Thyrotropin",
            "OTHER",
            "1.81",
            "mIU/L",
            "0.32",
            "5",
            "1.81",
            1.81,
            "mU/L",
            0.32,
            5,
            "NORMAL",
            "Y",
            1,
            "SCREENING 1",
            -7,
            "SCREENING",
            "2013-08-14T13:04",
            -9
          ],
          [
            274,
            "CDISCPILOT01",
            "LB",
            "01-701-1148",
            35,
            "UROBIL",
            "Urobilinogen",
            "URINALYSIS",
            "0",
            "",
            "",
            "",
            "0",
            0,
            "",
            null,
            null,
            "NORMAL",
            "Y",
            1,
            "SCREENING 1",
            -7,
            "SCREENING",
            "2013-08-14T13:04",
            -9
          ],
          [
            275,
            "CDISCPILOT01",
            "LB",
            "01-701-1148",
            71,
            "UROBIL",
            "Urobilinogen",
            "URINALYSIS",
            "0",
            "",
            "",
            "",
            "0",
            0,
            "",
            null,
            null,
            "NORMAL",
            "",
            4,
            "WEEK 2",
            14,
            "TREATMENT",
            "2013-09-05T15:43",
            14
          ],
          [
            276,
            "CDISCPILOT01",
            "LB",
            "01-701-1148",
            196,
            "UROBIL",
            "Urobilinogen",
            "URINALYSIS",
            "0",
            "",
            "",
            "",
            "0",
            0,
            "",
            null,
            null,
            "NORMAL",
            "",
            9,
            "WEEK 12",
            84,
            "TREATMENT",
            "2013-11-17T10:59",
            87
          ],
          [
            277,
            "CDISCPILOT01",
            "LB",
            "01-701-1148",
            291,
            "UROBIL",
            "Urobilinogen",
            "URINALYSIS",
            "0",
            "",
            "",
            "",
            "0",
            0,
            "",
            null,
            null,
            "NORMAL",
            "",
            12,
            "WEEK 24",
            168,
            "TREATMENT",
            "2014-02-08T14:40",
            170
          ],
          [
            278,
            "CDISCPILOT01",
            "LB",
            "01-701-1148",
            36,
            "VITB12",
            "Vitamin B12",
            "OTHER",
            "500",
            "ng/L",
            "200",
            "900",
            "368.9",
            368.9,
            "pmol/L",
            148,
            664,
            "NORMAL",
            "Y",
            1,
            "SCREENING 1",
            -7,
            "SCREENING",
            "2013-08-14T13:04",
            -9
          ],
          [
            279,
            "CDISCPILOT01",
            "LB",
            "01-701-1153",
            12,
            "COLOR",
            "Color",
            "URINALYSIS",
            "N",
            "",
            "",
            "",
            "N",
            null,
            "",
            null,
            null,
            "NORMAL",
            "Y",
            1,
            "SCREENING 1",
            -7,
            "SCREENING",
            "2013-09-06T14:50",
            -17
          ],
          [
            280,
            "CDISCPILOT01",
            "LB",
            "01-701-1153",
            49,
            "COLOR",
            "Color",
            "URINALYSIS",
            "N",
            "",
            "",
            "",
            "N",
            null,
            "",
            null,
            null,
            "NORMAL",
            "",
            4,
            "WEEK 2",
            14,
            "TREATMENT",
            "2013-10-08T11:00",
            16
          ],
          [
            281,
            "CDISCPILOT01",
            "LB",
            "01-701-1153",
            103,
            "COLOR",
            "Color",
            "URINALYSIS",
            "N",
            "",
            "",
            "",
            "N",
            null,
            "",
            null,
            null,
            "NORMAL",
            "",
            5.1,
            "UNSCHEDULED 5.1",
            null,
            "TREATMENT",
            "2013-10-19T12:22",
            27
          ],
          [
            282,
            "CDISCPILOT01",
            "LB",
            "01-701-1153",
            179,
            "COLOR",
            "Color",
            "URINALYSIS",
            "N",
            "",
            "",
            "",
            "N",
            null,
            "",
            null,
            null,
            "NORMAL",
            "",
            9,
            "WEEK 12",
            84,
            "TREATMENT",
            "2013-12-16T15:22",
            85
          ],
          [
            283,
            "CDISCPILOT01",
            "LB",
            "01-701-1153",
            203,
            "COLOR",
            "Color",
            "URINALYSIS",
            "N",
            "",
            "",
            "",
            "N",
            null,
            "",
            null,
            null,
            "NORMAL",
            "",
            9.2,
            "UNSCHEDULED 9.2",
            null,
            "TREATMENT",
            "2013-12-18T06:30",
            87
          ],
          [
            284,
            "CDISCPILOT01",
            "LB",
            "01-701-1153",
            208,
            "COLOR",
            "Color",
            "URINALYSIS",
            "N",
            "",
            "",
            "",
            "N",
            null,
            "",
            null,
            null,
            "NORMAL",
            "",
            9.3,
            "UNSCHEDULED 9.3",
            null,
            "TREATMENT",
            "2014-01-08T11:05",
            108
          ],
          [
            285,
            "CDISCPILOT01",
            "LB",
            "01-701-1153",
            284,
            "COLOR",
            "Color",
            "URINALYSIS",
            "N",
            "",
            "",
            "",
            "N",
            null,
            "",
            null,
            null,
            "NORMAL",
            "",
            12,
            "WEEK 24",
            168,
            "TREATMENT",
            "2014-03-11T11:58",
            170
          ],
          [
            286,
            "CDISCPILOT01",
            "LB",
            "01-701-1153",
            20,
            "KETONES",
            "Ketones",
            "URINALYSIS",
            "0",
            "",
            "",
            "",
            "0",
            0,
            "",
            null,
            null,
            "NORMAL",
            "Y",
            1,
            "SCREENING 1",
            -7,
            "SCREENING",
            "2013-09-06T14:50",
            -17
          ],
          [
            287,
            "CDISCPILOT01",
            "LB",
            "01-701-1153",
            57,
            "KETONES",
            "Ketones",
            "URINALYSIS",
            "0",
            "",
            "",
            "",
            "0",
            0,
            "",
            null,
            null,
            "NORMAL",
            "",
            4,
            "WEEK 2",
            14,
            "TREATMENT",
            "2013-10-08T11:00",
            16
          ],
          [
            288,
            "CDISCPILOT01",
            "LB",
            "01-701-1153",
            104,
            "KETONES",
            "Ketones",
            "URINALYSIS",
            "0",
            "",
            "",
            "",
            "0",
            0,
            "",
            null,
            null,
            "NORMAL",
            "",
            5.1,
            "UNSCHEDULED 5.1",
            null,
            "TREATMENT",
            "2013-10-19T12:22",
            27
          ],
          [
            289,
            "CDISCPILOT01",
            "LB",
            "01-701-1153",
            187,
            "KETONES",
            "Ketones",
            "URINALYSIS",
            "1",
            "",
            "",
            "",
            "1",
            1,
            "",
            null,
            null,
            "ABNORMAL",
            "",
            9,
            "WEEK 12",
            84,
            "TREATMENT",
            "2013-12-16T15:22",
            85
          ],
          [
            290,
            "CDISCPILOT01",
            "LB",
            "01-701-1153",
            204,
            "KETONES",
            "Ketones",
            "URINALYSIS",
            "0",
            "",
            "",
            "",
            "0",
            0,
            "",
            null,
            null,
            "NORMAL",
            "",
            9.2,
            "UNSCHEDULED 9.2",
            null,
            "TREATMENT",
            "2013-12-18T06:30",
            87
          ],
          [
            291,
            "CDISCPILOT01",
            "LB",
            "01-701-1153",
            209,
            "KETONES",
            "Ketones",
            "URINALYSIS",
            "0",
            "",
            "",
            "",
            "0",
            0,
            "",
            null,
            null,
            "NORMAL",
            "",
            9.3,
            "UNSCHEDULED 9.3",
            null,
            "TREATMENT",
            "2014-01-08T11:05",
            108
          ],
          [
            292,
            "CDISCPILOT01",
            "LB",
            "01-701-1153",
            292,
            "KETONES",
            "Ketones",
            "URINALYSIS",
            "0",
            "",
            "",
            "",
            "0",
            0,
            "",
            null,
            null,
            "NORMAL",
            "",
            12,
            "WEEK 24",
            168,
            "TREATMENT",
            "2014-03-11T11:58",
            170
          ],
          [
            293,
            "CDISCPILOT01",
            "LB",
            "01-701-1153",
            27,
            "PH",
            "pH",
            "URINALYSIS",
            "5.0",
            "",
            "5",
            "8",
            "5",
            5,
            "",
            5,
            8,
            "NORMAL",
            "Y",
            1,
            "SCREENING 1",
            -7,
            "SCREENING",
            "2013-09-06T14:50",
            -17
          ],
          [
            294,
            "CDISCPILOT01",
            "LB",
            "01-701-1153",
            64,
            "PH",
            "pH",
            "URINALYSIS",
            "5.0",
            "",
            "5",
            "8",
            "5",
            5,
            "",
            5,
            8,
            "NORMAL",
            "",
            4,
            "WEEK 2",
            14,
            "TREATMENT",
            "2013-10-08T11:00",
            16
          ],
          [
            295,
            "CDISCPILOT01",
            "LB",
            "01-701-1153",
            105,
            "PH",
            "pH",
            "URINALYSIS",
            "5.0",
            "",
            "5",
            "8",
            "5",
            5,
            "",
            5,
            8,
            "NORMAL",
            "",
            5.1,
            "UNSCHEDULED 5.1",
            null,
            "TREATMENT",
            "2013-10-19T12:22",
            27
          ],
          [
            296,
            "CDISCPILOT01",
            "LB",
            "01-701-1153",
            194,
            "PH",
            "pH",
            "URINALYSIS",
            "5.0",
            "",
            "5",
            "8",
            "5",
            5,
            "",
            5,
            8,
            "NORMAL",
            "",
            9,
            "WEEK 12",
            84,
            "TREATMENT",
            "2013-12-16T15:22",
            85
          ],
          [
            297,
            "CDISCPILOT01",
            "LB",
            "01-701-1153",
            205,
            "PH",
            "pH",
            "URINALYSIS",
            "5.0",
            "",
            "5",
            "8",
            "5",
            5,
            "",
            5,
            8,
            "NORMAL",
            "",
            9.2,
            "UNSCHEDULED 9.2",
            null,
            "TREATMENT",
            "2013-12-18T06:30",
            87
          ],
          [
            298,
            "CDISCPILOT01",
            "LB",
            "01-701-1153",
            210,
            "PH",
            "pH",
            "URINALYSIS",
            "7.0",
            "",
            "5",
            "8",
            "7",
            7,
            "",
            5,
            8,
            "NORMAL",
            "",
            9.3,
            "UNSCHEDULED 9.3",
            null,
            "TREATMENT",
            "2014-01-08T11:05",
            108
          ],
          [
            299,
            "CDISCPILOT01",
            "LB",
            "01-701-1153",
            299,
            "PH",
            "pH",
            "URINALYSIS",
            "7.0",
            "",
            "5",
            "8",
            "7",
            7,
            "",
            5,
            8,
            "NORMAL",
            "",
            12,
            "WEEK 24",
            168,
            "TREATMENT",
            "2014-03-11T11:58",
            170
          ],
          [
            300,
            "CDISCPILOT01",
            "LB",
            "01-701-1153",
            32,
            "SPGRAV",
            "Specific Gravity",
            "URINALYSIS",
            "1.003",
            "",
            "1.006",
            "1.03",
            "1.003",
            1.003,
            "",
            1.006,
            1.03,
            "LOW",
            "Y",
            1,
            "SCREENING 1",
            -7,
            "SCREENING",
            "2013-09-06T14:50",
            -17
          ],
          [
            301,
            "CDISCPILOT01",
            "LB",
            "01-701-1153",
            69,
            "SPGRAV",
            "Specific Gravity",
            "URINALYSIS",
            "1.019",
            "",
            "1.006",
            "1.03",
            "1.019",
            1.019,
            "",
            1.006,
            1.03,
            "NORMAL",
            "",
            4,
            "WEEK 2",
            14,
            "TREATMENT",
            "2013-10-08T11:00",
            16
          ],
          [
            302,
            "CDISCPILOT01",
            "LB",
            "01-701-1153",
            106,
            "SPGRAV",
            "Specific Gravity",
            "URINALYSIS",
            "1.019",
            "",
            "1.006",
            "1.03",
            "1.019",
            1.019,
            "",
            1.006,
            1.03,
            "NORMAL",
            "",
            5.1,
            "UNSCHEDULED 5.1",
            null,
            "TREATMENT",
            "2013-10-19T12:22",
            27
          ],
          [
            303,
            "CDISCPILOT01",
            "LB",
            "01-701-1153",
            199,
            "SPGRAV",
            "Specific Gravity",
            "URINALYSIS",
            "1.023",
            "",
            "1.006",
            "1.03",
            "1.023",
            1.023,
            "",
            1.006,
            1.03,
            "NORMAL",
            "",
            9,
            "WEEK 12",
            84,
            "TREATMENT",
            "2013-12-16T15:22",
            85
          ],
          [
            304,
            "CDISCPILOT01",
            "LB",
            "01-701-1153",
            206,
            "SPGRAV",
            "Specific Gravity",
            "URINALYSIS",
            "1.011",
            "",
            "1.006",
            "1.03",
            "1.011",
            1.011,
            "",
            1.006,
            1.03,
            "NORMAL",
            "",
            9.2,
            "UNSCHEDULED 9.2",
            null,
            "TREATMENT",
            "2013-12-18T06:30",
            87
          ],
          [
            305,
            "CDISCPILOT01",
            "LB",
            "01-701-1153",
            211,
            "SPGRAV",
            "Specific Gravity",
            "URINALYSIS",
            "1.012",
            "",
            "1.006",
            "1.03",
            "1.012",
            1.012,
            "",
            1.006,
            1.03,
            "NORMAL",
            "",
            9.3,
            "UNSCHEDULED 9.3",
            null,
            "TREATMENT",
            "2014-01-08T11:05",
            108
          ],
          [
            306,
            "CDISCPILOT01",
            "LB",
            "01-701-1153",
            304,
            "SPGRAV",
            "Specific Gravity",
            "URINALYSIS",
            "1.010",
            "",
            "1.006",
            "1.03",
            "1.01",
            1.01,
            "",
            1.006,
            1.03,
            "NORMAL",
            "",
            12,
            "WEEK 24",
            168,
            "TREATMENT",
            "2014-03-11T11:58",
            170
          ],
          [
            307,
            "CDISCPILOT01",
            "LB",
            "01-701-1153",
            33,
            "TSH",
            "Thyrotropin",
            "OTHER",
            "0.38",
            "mIU/L",
            "0.32",
            "5",
            "0.38",
            0.38,
            "mU/L",
            0.32,
            5,
            "NORMAL",
            "Y",
            1,
            "SCREENING 1",
            -7,
            "SCREENING",
            "2013-09-06T14:50",
            -17
          ],
          [
            308,
            "CDISCPILOT01",
            "LB",
            "01-701-1153",
            35,
            "UROBIL",
            "Urobilinogen",
            "URINALYSIS",
            "0",
            "",
            "",
            "",
            "0",
            0,
            "",
            null,
            null,
            "NORMAL",
            "Y",
            1,
            "SCREENING 1",
            -7,
            "SCREENING",
            "2013-09-06T14:50",
            -17
          ],
          [
            309,
            "CDISCPILOT01",
            "LB",
            "01-701-1153",
            71,
            "UROBIL",
            "Urobilinogen",
            "URINALYSIS",
            "0",
            "",
            "",
            "",
            "0",
            0,
            "",
            null,
            null,
            "NORMAL",
            "",
            4,
            "WEEK 2",
            14,
            "TREATMENT",
            "2013-10-08T11:00",
            16
          ],
          [
            310,
            "CDISCPILOT01",
            "LB",
            "01-701-1153",
            107,
            "UROBIL",
            "Urobilinogen",
            "URINALYSIS",
            "0",
            "",
            "",
            "",
            "0",
            0,
            "",
            null,
            null,
            "NORMAL",
            "",
            5.1,
            "UNSCHEDULED 5.1",
            null,
            "TREATMENT",
            "2013-10-19T12:22",
            27
          ],
          [
            311,
            "CDISCPILOT01",
            "LB",
            "01-701-1153",
            201,
            "UROBIL",
            "Urobilinogen",
            "URINALYSIS",
            "0",
            "",
            "",
            "",
            "0",
            0,
            "",
            null,
            null,
            "NORMAL",
            "",
            9,
            "WEEK 12",
            84,
            "TREATMENT",
            "2013-12-16T15:22",
            85
          ],
          [
            312,
            "CDISCPILOT01",
            "LB",
            "01-701-1153",
            207,
            "UROBIL",
            "Urobilinogen",
            "URINALYSIS",
            "0",
            "",
            "",
            "",
            "0",
            0,
            "",
            null,
            null,
            "NORMAL",
            "",
            9.2,
            "UNSCHEDULED 9.2",
            null,
            "TREATMENT",
            "2013-12-18T06:30",
            87
          ],
          [
            313,
            "CDISCPILOT01",
            "LB",
            "01-701-1153",
            212,
            "UROBIL",
            "Urobilinogen",
            "URINALYSIS",
            "0",
            "",
            "",
            "",
            "0",
            0,
            "",
            null,
            null,
            "NORMAL",
            "",
            9.3,
            "UNSCHEDULED 9.3",
            null,
            "TREATMENT",
            "2014-01-08T11:05",
            108
          ],
          [
            314,
            "CDISCPILOT01",
            "LB",
            "01-701-1153",
            306,
            "UROBIL",
            "Urobilinogen",
            "URINALYSIS",
            "0",
            "",
            "",
            "",
            "0",
            0,
            "",
            null,
            null,
            "NORMAL",
            "",
            12,
            "WEEK 24",
            168,
            "TREATMENT",
            "2014-03-11T11:58",
            170
          ],
          [
            315,
            "CDISCPILOT01",
            "LB",
            "01-701-1153",
            36,
            "VITB12",
            "Vitamin B12",
            "OTHER",
            "345",
            "ng/L",
            "200",
            "900",
            "254.541",
            254.541,
            "pmol/L",
            148,
            664,
            "NORMAL",
            "Y",
            1,
            "SCREENING 1",
            -7,
            "SCREENING",
            "2013-09-06T14:50",
            -17
          ],
          [
            316,
            "CDISCPILOT01",
            "LB",
            "01-701-1180",
            12,
            "COLOR",
            "Color",
            "URINALYSIS",
            "N",
            "",
            "",
            "",
            "N",
            null,
            "",
            null,
            null,
            "NORMAL",
            "Y",
            1,
            "SCREENING 1",
            -7,
            "SCREENING",
            "2013-01-28T11:00",
            -15
          ],
          [
            317,
            "CDISCPILOT01",
            "LB",
            "01-701-1180",
            49,
            "COLOR",
            "Color",
            "URINALYSIS",
            "N",
            "",
            "",
            "",
            "N",
            null,
            "",
            null,
            null,
            "NORMAL",
            "",
            4,
            "WEEK 2",
            14,
            "TREATMENT",
            "2013-02-25T12:10",
            14
          ],
          [
            318,
            "CDISCPILOT01",
            "LB",
            "01-701-1180",
            114,
            "COLOR",
            "Color",
            "URINALYSIS",
            "N",
            "",
            "",
            "",
            "N",
            null,
            "",
            null,
            null,
            "NORMAL",
            "",
            7,
            "WEEK 6",
            42,
            "TREATMENT",
            "2013-03-23T12:45",
            40
          ],
          [
            319,
            "CDISCPILOT01",
            "LB",
            "01-701-1180",
            20,
            "KETONES",
            "Ketones",
            "URINALYSIS",
            "0",
            "",
            "",
            "",
            "0",
            0,
            "",
            null,
            null,
            "NORMAL",
            "Y",
            1,
            "SCREENING 1",
            -7,
            "SCREENING",
            "2013-01-28T11:00",
            -15
          ],
          [
            320,
            "CDISCPILOT01",
            "LB",
            "01-701-1180",
            57,
            "KETONES",
            "Ketones",
            "URINALYSIS",
            "0",
            "",
            "",
            "",
            "0",
            0,
            "",
            null,
            null,
            "NORMAL",
            "",
            4,
            "WEEK 2",
            14,
            "TREATMENT",
            "2013-02-25T12:10",
            14
          ],
          [
            321,
            "CDISCPILOT01",
            "LB",
            "01-701-1180",
            122,
            "KETONES",
            "Ketones",
            "URINALYSIS",
            "0",
            "",
            "",
            "",
            "0",
            0,
            "",
            null,
            null,
            "NORMAL",
            "",
            7,
            "WEEK 6",
            42,
            "TREATMENT",
            "2013-03-23T12:45",
            40
          ],
          [
            322,
            "CDISCPILOT01",
            "LB",
            "01-701-1180",
            27,
            "PH",
            "pH",
            "URINALYSIS",
            "5.0",
            "",
            "5",
            "8",
            "5",
            5,
            "",
            5,
            8,
            "NORMAL",
            "Y",
            1,
            "SCREENING 1",
            -7,
            "SCREENING",
            "2013-01-28T11:00",
            -15
          ],
          [
            323,
            "CDISCPILOT01",
            "LB",
            "01-701-1180",
            64,
            "PH",
            "pH",
            "URINALYSIS",
            "5.0",
            "",
            "5",
            "8",
            "5",
            5,
            "",
            5,
            8,
            "NORMAL",
            "",
            4,
            "WEEK 2",
            14,
            "TREATMENT",
            "2013-02-25T12:10",
            14
          ],
          [
            324,
            "CDISCPILOT01",
            "LB",
            "01-701-1180",
            129,
            "PH",
            "pH",
            "URINALYSIS",
            "6.0",
            "",
            "5",
            "8",
            "6",
            6,
            "",
            5,
            8,
            "NORMAL",
            "",
            7,
            "WEEK 6",
            42,
            "TREATMENT",
            "2013-03-23T12:45",
            40
          ],
          [
            325,
            "CDISCPILOT01",
            "LB",
            "01-701-1180",
            32,
            "SPGRAV",
            "Specific Gravity",
            "URINALYSIS",
            "1.019",
            "",
            "1.01",
            "1.034",
            "1.019",
            1.019,
            "",
            1.01,
            1.034,
            "NORMAL",
            "Y",
            1,
            "SCREENING 1",
            -7,
            "SCREENING",
            "2013-01-28T11:00",
            -15
          ],
          [
            326,
            "CDISCPILOT01",
            "LB",
            "01-701-1180",
            69,
            "SPGRAV",
            "Specific Gravity",
            "URINALYSIS",
            "1.014",
            "",
            "1.01",
            "1.034",
            "1.014",
            1.014,
            "",
            1.01,
            1.034,
            "NORMAL",
            "",
            4,
            "WEEK 2",
            14,
            "TREATMENT",
            "2013-02-25T12:10",
            14
          ],
          [
            327,
            "CDISCPILOT01",
            "LB",
            "01-701-1180",
            134,
            "SPGRAV",
            "Specific Gravity",
            "URINALYSIS",
            "1.020",
            "",
            "1.01",
            "1.034",
            "1.02",
            1.02,
            "",
            1.01,
            1.034,
            "NORMAL",
            "",
            7,
            "WEEK 6",
            42,
            "TREATMENT",
            "2013-03-23T12:45",
            40
          ],
          [
            328,
            "CDISCPILOT01",
            "LB",
            "01-701-1180",
            33,
            "TSH",
            "Thyrotropin",
            "OTHER",
            "4.27",
            "mIU/L",
            "0.32",
            "5",
            "4.27",
            4.27,
            "mU/L",
            0.32,
            5,
            "NORMAL",
            "Y",
            1,
            "SCREENING 1",
            -7,
            "SCREENING",
            "2013-01-28T11:00",
            -15
          ],
          [
            329,
            "CDISCPILOT01",
            "LB",
            "01-701-1180",
            35,
            "UROBIL",
            "Urobilinogen",
            "URINALYSIS",
            "0",
            "",
            "",
            "",
            "0",
            0,
            "",
            null,
            null,
            "NORMAL",
            "Y",
            1,
            "SCREENING 1",
            -7,
            "SCREENING",
            "2013-01-28T11:00",
            -15
          ],
          [
            330,
            "CDISCPILOT01",
            "LB",
            "01-701-1180",
            71,
            "UROBIL",
            "Urobilinogen",
            "URINALYSIS",
            "0",
            "",
            "",
            "",
            "0",
            0,
            "",
            null,
            null,
            "NORMAL",
            "",
            4,
            "WEEK 2",
            14,
            "TREATMENT",
            "2013-02-25T12:10",
            14
          ],
          [
            331,
            "CDISCPILOT01",
            "LB",
            "01-701-1180",
            136,
            "UROBIL",
            "Urobilinogen",
            "URINALYSIS",
            "0",
            "",
            "",
            "",
            "0",
            0,
            "",
            null,
            null,
            "NORMAL",
            "",
            7,
            "WEEK 6",
            42,
            "TREATMENT",
            "2013-03-23T12:45",
            40
          ],
          [
            332,
            "CDISCPILOT01",
            "LB",
            "01-701-1180",
            36,
            "VITB12",
            "Vitamin B12",
            "OTHER",
            "602",
            "ng/L",
            "200",
            "900",
            "444.1556",
            444.1556,
            "pmol/L",
            148,
            664,
            "NORMAL",
            "Y",
            1,
            "SCREENING 1",
            -7,
            "SCREENING",
            "2013-01-28T11:00",
            -15
          ],
          [
            333,
            "CDISCPILOT01",
            "LB",
            "01-701-1181",
            12,
            "COLOR",
            "Color",
            "URINALYSIS",
            "N",
            "",
            "",
            "",
            "N",
            null,
            "",
            null,
            null,
            "NORMAL",
            "Y",
            1,
            "SCREENING 1",
            -7,
            "SCREENING",
            "2013-11-26T13:36",
            -9
          ],
          [
            334,
            "CDISCPILOT01",
            "LB",
            "01-701-1181",
            49,
            "COLOR",
            "Color",
            "URINALYSIS",
            "N",
            "",
            "",
            "",
            "N",
            null,
            "",
            null,
            null,
            "NORMAL",
            "",
            4,
            "WEEK 2",
            14,
            "TREATMENT",
            "2013-12-12T12:09",
            8
          ],
          [
            335,
            "CDISCPILOT01",
            "LB",
            "01-701-1181",
            20,
            "KETONES",
            "Ketones",
            "URINALYSIS",
            "0",
            "",
            "",
            "",
            "0",
            0,
            "",
            null,
            null,
            "NORMAL",
            "Y",
            1,
            "SCREENING 1",
            -7,
            "SCREENING",
            "2013-11-26T13:36",
            -9
          ],
          [
            336,
            "CDISCPILOT01",
            "LB",
            "01-701-1181",
            57,
            "KETONES",
            "Ketones",
            "URINALYSIS",
            "0",
            "",
            "",
            "",
            "0",
            0,
            "",
            null,
            null,
            "NORMAL",
            "",
            4,
            "WEEK 2",
            14,
            "TREATMENT",
            "2013-12-12T12:09",
            8
          ],
          [
            337,
            "CDISCPILOT01",
            "LB",
            "01-701-1181",
            27,
            "PH",
            "pH",
            "URINALYSIS",
            "5.0",
            "",
            "5",
            "8",
            "5",
            5,
            "",
            5,
            8,
            "NORMAL",
            "Y",
            1,
            "SCREENING 1",
            -7,
            "SCREENING",
            "2013-11-26T13:36",
            -9
          ],
          [
            338,
            "CDISCPILOT01",
            "LB",
            "01-701-1181",
            64,
            "PH",
            "pH",
            "URINALYSIS",
            "5.0",
            "",
            "5",
            "8",
            "5",
            5,
            "",
            5,
            8,
            "NORMAL",
            "",
            4,
            "WEEK 2",
            14,
            "TREATMENT",
            "2013-12-12T12:09",
            8
          ],
          [
            339,
            "CDISCPILOT01",
            "LB",
            "01-701-1181",
            32,
            "SPGRAV",
            "Specific Gravity",
            "URINALYSIS",
            "1.016",
            "",
            "1.006",
            "1.03",
            "1.016",
            1.016,
            "",
            1.006,
            1.03,
            "NORMAL",
            "Y",
            1,
            "SCREENING 1",
            -7,
            "SCREENING",
            "2013-11-26T13:36",
            -9
          ],
          [
            340,
            "CDISCPILOT01",
            "LB",
            "01-701-1181",
            69,
            "SPGRAV",
            "Specific Gravity",
            "URINALYSIS",
            "1.011",
            "",
            "1.006",
            "1.03",
            "1.011",
            1.011,
            "",
            1.006,
            1.03,
            "NORMAL",
            "",
            4,
            "WEEK 2",
            14,
            "TREATMENT",
            "2013-12-12T12:09",
            8
          ],
          [
            341,
            "CDISCPILOT01",
            "LB",
            "01-701-1181",
            33,
            "TSH",
            "Thyrotropin",
            "OTHER",
            "1.51",
            "mIU/L",
            "0.32",
            "5",
            "1.51",
            1.51,
            "mU/L",
            0.32,
            5,
            "NORMAL",
            "Y",
            1,
            "SCREENING 1",
            -7,
            "SCREENING",
            "2013-11-26T13:36",
            -9
          ],
          [
            342,
            "CDISCPILOT01",
            "LB",
            "01-701-1181",
            35,
            "UROBIL",
            "Urobilinogen",
            "URINALYSIS",
            "0",
            "",
            "",
            "",
            "0",
            0,
            "",
            null,
            null,
            "NORMAL",
            "Y",
            1,
            "SCREENING 1",
            -7,
            "SCREENING",
            "2013-11-26T13:36",
            -9
          ],
          [
            343,
            "CDISCPILOT01",
            "LB",
            "01-701-1181",
            71,
            "UROBIL",
            "Urobilinogen",
            "URINALYSIS",
            "0",
            "",
            "",
            "",
            "0",
            0,
            "",
            null,
            null,
            "NORMAL",
            "",
            4,
            "WEEK 2",
            14,
            "TREATMENT",
            "2013-12-12T12:09",
            8
          ],
          [
            344,
            "CDISCPILOT01",
            "LB",
            "01-701-1181",
            36,
            "VITB12",
            "Vitamin B12",
            "OTHER",
            "421",
            "ng/L",
            "200",
            "900",
            "310.6138",
            310.6138,
            "pmol/L",
            148,
            664,
            "NORMAL",
            "Y",
            1,
            "SCREENING 1",
            -7,
            "SCREENING",
            "2013-11-26T13:36",
            -9
          ],
          [
            345,
            "CDISCPILOT01",
            "LB",
            "01-701-1188",
            12,
            "COLOR",
            "Color",
            "URINALYSIS",
            "N",
            "",
            "",
            "",
            "N",
            null,
            "",
            null,
            null,
            "NORMAL",
            "Y",
            1,
            "SCREENING 1",
            -7,
            "SCREENING",
            "2013-02-03T12:37",
            -12
          ],
          [
            346,
            "CDISCPILOT01",
            "LB",
            "01-701-1188",
            49,
            "COLOR",
            "Color",
            "URINALYSIS",
            "N",
            "",
            "",
            "",
            "N",
            null,
            "",
            null,
            null,
            "NORMAL",
            "",
            4,
            "WEEK 2",
            14,
            "TREATMENT",
            "2013-03-02T08:31",
            16
          ],
          [
            347,
            "CDISCPILOT01",
            "LB",
            "01-701-1188",
            114,
            "COLOR",
            "Color",
            "URINALYSIS",
            "N",
            "",
            "",
            "",
            "N",
            null,
            "",
            null,
            null,
            "NORMAL",
            "",
            7,
            "WEEK 6",
            42,
            "TREATMENT",
            "2013-03-25T15:08",
            39
          ],
          [
            348,
            "CDISCPILOT01",
            "LB",
            "01-701-1188",
            20,
            "KETONES",
            "Ketones",
            "URINALYSIS",
            "0",
            "",
            "",
            "",
            "0",
            0,
            "",
            null,
            null,
            "NORMAL",
            "Y",
            1,
            "SCREENING 1",
            -7,
            "SCREENING",
            "2013-02-03T12:37",
            -12
          ],
          [
            349,
            "CDISCPILOT01",
            "LB",
            "01-701-1188",
            57,
            "KETONES",
            "Ketones",
            "URINALYSIS",
            "0",
            "",
            "",
            "",
            "0",
            0,
            "",
            null,
            null,
            "NORMAL",
            "",
            4,
            "WEEK 2",
            14,
            "TREATMENT",
            "2013-03-02T08:31",
            16
          ],
          [
            350,
            "CDISCPILOT01",
            "LB",
            "01-701-1188",
            122,
            "KETONES",
            "Ketones",
            "URINALYSIS",
            "0",
            "",
            "",
            "",
            "0",
            0,
            "",
            null,
            null,
            "NORMAL",
            "",
            7,
            "WEEK 6",
            42,
            "TREATMENT",
            "2013-03-25T15:08",
            39
          ],
          [
            351,
            "CDISCPILOT01",
            "LB",
            "01-701-1188",
            27,
            "PH",
            "pH",
            "URINALYSIS",
            "6.0",
            "",
            "5",
            "8",
            "6",
            6,
            "",
            5,
            8,
            "NORMAL",
            "Y",
            1,
            "SCREENING 1",
            -7,
            "SCREENING",
            "2013-02-03T12:37",
            -12
          ],
          [
            352,
            "CDISCPILOT01",
            "LB",
            "01-701-1188",
            64,
            "PH",
            "pH",
            "URINALYSIS",
            "5.0",
            "",
            "5",
            "8",
            "5",
            5,
            "",
            5,
            8,
            "NORMAL",
            "",
            4,
            "WEEK 2",
            14,
            "TREATMENT",
            "2013-03-02T08:31",
            16
          ],
          [
            353,
            "CDISCPILOT01",
            "LB",
            "01-701-1188",
            129,
            "PH",
            "pH",
            "URINALYSIS",
            "5.0",
            "",
            "5",
            "8",
            "5",
            5,
            "",
            5,
            8,
            "NORMAL",
            "",
            7,
            "WEEK 6",
            42,
            "TREATMENT",
            "2013-03-25T15:08",
            39
          ],
          [
            354,
            "CDISCPILOT01",
            "LB",
            "01-701-1188",
            32,
            "SPGRAV",
            "Specific Gravity",
            "URINALYSIS",
            "1.019",
            "",
            "1.006",
            "1.03",
            "1.019",
            1.019,
            "",
            1.006,
            1.03,
            "NORMAL",
            "Y",
            1,
            "SCREENING 1",
            -7,
            "SCREENING",
            "2013-02-03T12:37",
            -12
          ],
          [
            355,
            "CDISCPILOT01",
            "LB",
            "01-701-1188",
            69,
            "SPGRAV",
            "Specific Gravity",
            "URINALYSIS",
            "1.022",
            "",
            "1.006",
            "1.03",
            "1.022",
            1.022,
            "",
            1.006,
            1.03,
            "NORMAL",
            "",
            4,
            "WEEK 2",
            14,
            "TREATMENT",
            "2013-03-02T08:31",
            16
          ],
          [
            356,
            "CDISCPILOT01",
            "LB",
            "01-701-1188",
            134,
            "SPGRAV",
            "Specific Gravity",
            "URINALYSIS",
            "1.022",
            "",
            "1.006",
            "1.03",
            "1.022",
            1.022,
            "",
            1.006,
            1.03,
            "NORMAL",
            "",
            7,
            "WEEK 6",
            42,
            "TREATMENT",
            "2013-03-25T15:08",
            39
          ],
          [
            357,
            "CDISCPILOT01",
            "LB",
            "01-701-1188",
            33,
            "TSH",
            "Thyrotropin",
            "OTHER",
            "1.48",
            "mIU/L",
            "0.32",
            "5",
            "1.48",
            1.48,
            "mU/L",
            0.32,
            5,
            "NORMAL",
            "Y",
            1,
            "SCREENING 1",
            -7,
            "SCREENING",
            "2013-02-03T12:37",
            -12
          ],
          [
            358,
            "CDISCPILOT01",
            "LB",
            "01-701-1188",
            35,
            "UROBIL",
            "Urobilinogen",
            "URINALYSIS",
            "0",
            "",
            "",
            "",
            "0",
            0,
            "",
            null,
            null,
            "NORMAL",
            "Y",
            1,
            "SCREENING 1",
            -7,
            "SCREENING",
            "2013-02-03T12:37",
            -12
          ],
          [
            359,
            "CDISCPILOT01",
            "LB",
            "01-701-1188",
            71,
            "UROBIL",
            "Urobilinogen",
            "URINALYSIS",
            "0",
            "",
            "",
            "",
            "0",
            0,
            "",
            null,
            null,
            "NORMAL",
            "",
            4,
            "WEEK 2",
            14,
            "TREATMENT",
            "2013-03-02T08:31",
            16
          ],
          [
            360,
            "CDISCPILOT01",
            "LB",
            "01-701-1188",
            136,
            "UROBIL",
            "Urobilinogen",
            "URINALYSIS",
            "0",
            "",
            "",
            "",
            "0",
            0,
            "",
            null,
            null,
            "NORMAL",
            "",
            7,
            "WEEK 6",
            42,
            "TREATMENT",
            "2013-03-25T15:08",
            39
          ],
          [
            361,
            "CDISCPILOT01",
            "LB",
            "01-701-1188",
            36,
            "VITB12",
            "Vitamin B12",
            "OTHER",
            "269",
            "ng/L",
            "200",
            "900",
            "198.4682",
            198.4682,
            "pmol/L",
            148,
            664,
            "NORMAL",
            "Y",
            1,
            "SCREENING 1",
            -7,
            "SCREENING",
            "2013-02-03T12:37",
            -12
          ],
          [
            362,
            "CDISCPILOT01",
            "LB",
            "01-701-1192",
            12,
            "COLOR",
            "Color",
            "URINALYSIS",
            "N",
            "",
            "",
            "",
            "N",
            null,
            "",
            null,
            null,
            "NORMAL",
            "Y",
            1,
            "SCREENING 1",
            -7,
            "SCREENING",
            "2012-07-08T15:50",
            -14
          ],
          [
            363,
            "CDISCPILOT01",
            "LB",
            "01-701-1192",
            49,
            "COLOR",
            "Color",
            "URINALYSIS",
            "N",
            "",
            "",
            "",
            "N",
            null,
            "",
            null,
            null,
            "NORMAL",
            "",
            4,
            "WEEK 2",
            14,
            "TREATMENT",
            "2012-08-07T10:31",
            17
          ],
          [
            364,
            "CDISCPILOT01",
            "LB",
            "01-701-1192",
            103,
            "COLOR",
            "Color",
            "URINALYSIS",
            "N",
            "",
            "",
            "",
            "N",
            null,
            "",
            null,
            null,
            "NORMAL",
            "",
            5.1,
            "UNSCHEDULED 5.1",
            null,
            "TREATMENT",
            "2012-08-21T11:00",
            31
          ],
          [
            365,
            "CDISCPILOT01",
            "LB",
            "01-701-1192",
            179,
            "COLOR",
            "Color",
            "URINALYSIS",
            "N",
            "",
            "",
            "",
            "N",
            null,
            "",
            null,
            null,
            "NORMAL",
            "",
            9,
            "WEEK 12",
            84,
            "TREATMENT",
            "2012-10-14T13:12",
            85
          ],
          [
            366,
            "CDISCPILOT01",
            "LB",
            "01-701-1192",
            274,
            "COLOR",
            "Color",
            "URINALYSIS",
            "N",
            "",
            "",
            "",
            "N",
            null,
            "",
            null,
            null,
            "NORMAL",
            "",
            12,
            "WEEK 24",
            168,
            "TREATMENT",
            "2013-01-11T15:37",
            174
          ],
          [
            367,
            "CDISCPILOT01",
            "LB",
            "01-701-1192",
            20,
            "KETONES",
            "Ketones",
            "URINALYSIS",
            "0",
            "",
            "",
            "",
            "0",
            0,
            "",
            null,
            null,
            "NORMAL",
            "Y",
            1,
            "SCREENING 1",
            -7,
            "SCREENING",
            "2012-07-08T15:50",
            -14
          ],
          [
            368,
            "CDISCPILOT01",
            "LB",
            "01-701-1192",
            57,
            "KETONES",
            "Ketones",
            "URINALYSIS",
            "0",
            "",
            "",
            "",
            "0",
            0,
            "",
            null,
            null,
            "NORMAL",
            "",
            4,
            "WEEK 2",
            14,
            "TREATMENT",
            "2012-08-07T10:31",
            17
          ],
          [
            369,
            "CDISCPILOT01",
            "LB",
            "01-701-1192",
            104,
            "KETONES",
            "Ketones",
            "URINALYSIS",
            "0",
            "",
            "",
            "",
            "0",
            0,
            "",
            null,
            null,
            "NORMAL",
            "",
            5.1,
            "UNSCHEDULED 5.1",
            null,
            "TREATMENT",
            "2012-08-21T11:00",
            31
          ],
          [
            370,
            "CDISCPILOT01",
            "LB",
            "01-701-1192",
            187,
            "KETONES",
            "Ketones",
            "URINALYSIS",
            "0",
            "",
            "",
            "",
            "0",
            0,
            "",
            null,
            null,
            "NORMAL",
            "",
            9,
            "WEEK 12",
            84,
            "TREATMENT",
            "2012-10-14T13:12",
            85
          ],
          [
            371,
            "CDISCPILOT01",
            "LB",
            "01-701-1192",
            282,
            "KETONES",
            "Ketones",
            "URINALYSIS",
            "0",
            "",
            "",
            "",
            "0",
            0,
            "",
            null,
            null,
            "NORMAL",
            "",
            12,
            "WEEK 24",
            168,
            "TREATMENT",
            "2013-01-11T15:37",
            174
          ],
          [
            372,
            "CDISCPILOT01",
            "LB",
            "01-701-1192",
            27,
            "PH",
            "pH",
            "URINALYSIS",
