{
  "clinicalData": {
    "studyOID": "UpdatedCDISCPILOT.CDISC SDTM.3.2",
    "metaDataVersionOID": "MDV.UpdatedCDISCPILOT.CDISC SDTM.3.2",
    "itemGroupData": {
      "IG.MH": {
        "records": 1817,
        "name": "MH",
        "label": "Medical History",
        "items": [
          {
            "OID": "ITEMGROUPDATASEQ",
            "name": "ITEMGROUPDATASEQ",
            "label": "Record identifier",
            "type": "integer"
          },
          {
            "OID": "IT.MH.STUDYID",
            "name": "STUDYID",
            "label": "Study Identifier",
            "type": "string",
            "length": 12
          },
          {
            "OID": "IT.MH.DOMAIN",
            "name": "DOMAIN",
            "label": "Domain Abbreviation",
            "type": "string",
            "length": 2
          },
          {
            "OID": "IT.MH.USUBJID",
            "name": "USUBJID",
            "label": "Unique Subject Identifier",
            "type": "string",
            "length": 11
          },
          {
            "OID": "IT.MH.MHSEQ",
            "name": "MHSEQ",
            "label": "Sequence Number",
            "type": "integer",
            "length": 8
          },
          {
            "OID": "IT.MH.MHSPID",
            "name": "MHSPID",
            "label": "Sponsor-Defined Identifier",
            "type": "string",
            "length": 3
          },
          {
            "OID": "IT.MH.MHTERM",
            "name": "MHTERM",
            "label": "Reported Term for the Medical History",
            "type": "string",
            "length": 19
          },
          {
            "OID": "IT.MH.MHLLT",
            "name": "MHLLT",
            "label": "Lowest Level Term",
            "type": "string",
            "length": 200
          },
          {
            "OID": "IT.MH.MHDECOD",
            "name": "MHDECOD",
            "label": "Dictionary-Derived Term",
            "type": "string",
            "length": 44
          },
          {
            "OID": "IT.MH.MHHLT",
            "name": "MHHLT",
            "label": "High Level Term",
            "type": "string",
            "length": 200
          },
          {
            "OID": "IT.MH.MHHLGT",
            "name": "MHHLGT",
            "label": "High Level Group Term",
            "type": "string",
            "length": 200
          },
          {
            "OID": "IT.MH.MHCAT",
            "name": "MHCAT",
            "label": "Category for Medical History",
            "type": "string",
            "length": 34
          },
          {
            "OID": "IT.MH.MHBODSYS",
            "name": "MHBODSYS",
            "label": "Body System or Organ Class",
            "type": "string",
            "length": 67
          },
          {
            "OID": "IT.MH.MHSEV",
            "name": "MHSEV",
            "label": "Severity/Intensity",
            "type": "string",
            "length": 8
          },
          {
            "OID": "IT.MH.VISITNUM",
            "name": "VISITNUM",
            "label": "Visit Number",
            "type": "float",
            "length": 8
          },
          {
            "OID": "IT.MH.VISIT",
            "name": "VISIT",
            "label": "Visit Name",
            "type": "string",
            "length": 19
          },
          {
            "OID": "IT.MH.VISITDY",
            "name": "VISITDY",
            "label": "Planned Study Day of Visit",
            "type": "integer",
            "length": 8
          },
          {
            "OID": "IT.MH.MHDTC",
            "name": "MHDTC",
            "label": "Date/Time of History Collection",
            "type": "string",
            "length": 10
          },
          {
            "OID": "IT.MH.MHSTDTC",
            "name": "MHSTDTC",
            "label": "Start Date/Time of Medical History Event",
            "type": "string",
            "length": 10
          },
          {
            "OID": "IT.MH.MHDY",
            "name": "MHDY",
            "label": "Study Day of History Collection",
            "type": "integer",
            "length": 8
          }
        ],
        "itemData": [
          [
            1,
            "CDISCPILOT01",
            "MH",
            "01-701-1015",
            9,
            "",
            "ALZHEIMER'S DISEASE",
            "",
            "",
            "",
            "",
            "PRIMARY DIAGNOSIS",
            "",
            "",
            1,
            "SCREENING 1",
            -7,
            "2013-12-26",
            "2010-04-30",
            -7
          ],
          [
            2,
            "CDISCPILOT01",
            "MH",
            "01-701-1015",
            10,
            "",
            "VERBATIM_0539",
            "GALLBLADDER STONES",
            "CHOLELITHIASIS",
            "HLT_0084",
            "HLGT_0177",
            "HISTORICAL DIAGNOSIS",
            "HEPATOBILIARY DISORDERS",
            "",
            1,
            "SCREENING 1",
            -7,
            "2013-12-26",
            "2012",
            -7
          ],
          [
            3,
            "CDISCPILOT01",
            "MH",
            "01-701-1015",
            4,
            "E02",
            "VERBATIM_0841",
            "HEARTBURN",
            "DYSPEPSIA",
            "HLT_0244",
            "HLGT_0716",
            "SIGNIFICANT PRE-EXISTING CONDITION",
            "GASTROINTESTINAL DISORDERS",
            "MILD",
            1,
            "SCREENING 1",
            -7,
            "2013-12-26",
            "",
            -7
          ],
          [
            4,
            "CDISCPILOT01",
            "MH",
            "01-701-1015",
            2,
            "E03",
            "VERBATIM_0301",
            "HEADACHE",
            "HEADACHE",
            "HLT_0064",
            "HLGT_0344",
            "SIGNIFICANT PRE-EXISTING CONDITION",
            "NERVOUS SYSTEM DISORDERS",
            "MILD",
            1,
            "SCREENING 1",
            -7,
            "2013-12-26",
            "",
            -7
          ],
          [
            5,
            "CDISCPILOT01",
            "MH",
            "01-701-1015",
            5,
            "E04",
            "VERBATIM_1779",
            "NUMBNESS IN LEG",
            "HYPOAESTHESIA",
            "HLT_0014",
            "HLGT_0528",
            "SIGNIFICANT PRE-EXISTING CONDITION",
            "NERVOUS SYSTEM DISORDERS",
            "MILD",
            1,
            "SCREENING 1",
            -7,
            "2013-12-26",
            "",
            -7
          ],
          [
            6,
            "CDISCPILOT01",
            "MH",
            "01-701-1015",
            8,
            "",
            "VERBATIM_0140",
            "SUBTOTAL HYSTERECTOMY",
            "HYSTERECTOMY",
            "HLT_0675",
            "HLGT_0657",
            "HISTORICAL DIAGNOSIS",
            "SURGICAL AND MEDICAL PROCEDURES",
            "",
            1,
            "SCREENING 1",
            -7,
            "2013-12-26",
            "1986",
            -7
          ],
          [
            7,
            "CDISCPILOT01",
            "MH",
            "01-701-1015",
            1,
            "E01",
            "VERBATIM_0135",
            "PALPITATIONS",
            "PALPITATIONS",
            "HLT_0493",
            "HLGT_0593",
            "SIGNIFICANT PRE-EXISTING CONDITION",
            "CARDIAC DISORDERS",
            "MILD",
            1,
            "SCREENING 1",
            -7,
            "2013-12-26",
            "",
            -7
          ],
          [
            8,
            "CDISCPILOT01",
            "MH",
            "01-701-1015",
            11,
            "",
            "VERBATIM_1230",
            "SORE THROAT",
            "PHARYNGOLARYNGEAL PAIN",
            "HLT_0130",
            "HLGT_0402",
            "HISTORICAL DIAGNOSIS",
            "RESPIRATORY, THORACIC AND MEDIASTINAL DISORDERS",
            "",
            1,
            "SCREENING 1",
            -7,
            "2013-12-26",
            "2013-12",
            -7
          ],
          [
            9,
            "CDISCPILOT01",
            "MH",
            "01-701-1015",
            6,
            "",
            "VERBATIM_1004",
            "THYROIDECTOMY PARTIAL",
            "THYROIDECTOMY PARTIAL",
            "HLT_0243",
            "HLGT_0016",
            "HISTORICAL DIAGNOSIS",
            "SURGICAL AND MEDICAL PROCEDURES",
            "",
            1,
            "SCREENING 1",
            -7,
            "2013-12-26",
            "1973",
            -7
          ],
          [
            10,
            "CDISCPILOT01",
            "MH",
            "01-701-1015",
            3,
            "E05",
            "VERBATIM_0825",
            "TINNITUS",
            "TINNITUS",
            "HLT_0570",
            "HLGT_0180",
            "SIGNIFICANT PRE-EXISTING CONDITION",
            "EAR AND LABYRINTH DISORDERS",
            "MILD",
            1,
            "SCREENING 1",
            -7,
            "2013-12-26",
            "",
            -7
          ],
          [
            11,
            "CDISCPILOT01",
            "MH",
            "01-701-1015",
            7,
            "",
            "VERBATIM_1716",
            "TONSILLECTOMY",
            "TONSILLECTOMY",
            "HLT_0202",
            "HLGT_0199",
            "HISTORICAL DIAGNOSIS",
            "SURGICAL AND MEDICAL PROCEDURES",
            "",
            1,
            "SCREENING 1",
            -7,
            "2013-12-26",
            "1973",
            -7
          ],
          [
            12,
            "CDISCPILOT01",
            "MH",
            "01-701-1023",
            16,
            "",
            "ALZHEIMER'S DISEASE",
            "",
            "",
            "",
            "",
            "PRIMARY DIAGNOSIS",
            "",
            "",
            1,
            "SCREENING 1",
            -7,
            "2012-07-22",
            "2006-03-11",
            -14
          ],
          [
            13,
            "CDISCPILOT01",
            "MH",
            "01-701-1023",
            9,
            "",
            "VERBATIM_1775",
            "APPENDECTOMY",
            "APPENDICECTOMY",
            "HLT_0707",
            "HLGT_0363",
            "HISTORICAL DIAGNOSIS",
            "SURGICAL AND MEDICAL PROCEDURES",
            "",
            1,
            "SCREENING 1",
            -7,
            "2012-07-22",
            "1956",
            -14
          ],
          [
            14,
            "CDISCPILOT01",
            "MH",
            "01-701-1023",
            8,
            "",
            "VERBATIM_0788",
            "APPENDICITIS",
            "APPENDICITIS",
            "HLT_0703",
            "HLGT_0283",
            "HISTORICAL DIAGNOSIS",
            "INFECTIONS AND INFESTATIONS",
            "",
            1,
            "SCREENING 1",
            -7,
            "2012-07-22",
            "1956",
            -14
          ],
          [
            15,
            "CDISCPILOT01",
            "MH",
            "01-701-1023",
            19,
            "",
            "VERBATIM_0291",
            "LOW BACK PAIN",
            "BACK PAIN",
            "HLT_0115",
            "HLGT_0508",
            "HISTORICAL DIAGNOSIS",
            "MUSCULOSKELETAL AND CONNECTIVE TISSUE DISORDERS",
            "",
            1,
            "SCREENING 1",
            -7,
            "2012-07-22",
            "2007",
            -14
          ],
          [
            16,
            "CDISCPILOT01",
            "MH",
            "01-701-1023",
            21,
            "",
            "VERBATIM_0073",
            "CELLULITIS OF FOOT",
            "CELLULITIS",
            "HLT_0613",
            "HLGT_0066",
            "HISTORICAL DIAGNOSIS",
            "INFECTIONS AND INFESTATIONS",
            "",
            1,
            "SCREENING 1",
            -7,
            "2012-07-22",
            "2009",
            -14
          ],
          [
            17,
            "CDISCPILOT01",
            "MH",
            "01-701-1023",
            4,
            "E04",
            "VERBATIM_0800",
            "INDIGESTION",
            "DYSPEPSIA",
            "HLT_0244",
            "HLGT_0716",
            "SIGNIFICANT PRE-EXISTING CONDITION",
            "GASTROINTESTINAL DISORDERS",
            "MILD",
            1,
            "SCREENING 1",
            -7,
            "2012-07-22",
            "",
            -14
          ],
          [
            18,
            "CDISCPILOT01",
            "MH",
            "01-701-1023",
            6,
            "E01",
            "VERBATIM_1042",
            "DYSPNEA EXERTIONAL",
            "DYSPNOEA EXERTIONAL",
            "HLT_0465",
            "HLGT_0475",
            "SIGNIFICANT PRE-EXISTING CONDITION",
            "RESPIRATORY, THORACIC AND MEDIASTINAL DISORDERS",
            "MILD",
            1,
            "SCREENING 1",
            -7,
            "2012-07-22",
            "",
            -14
          ],
          [
            19,
            "CDISCPILOT01",
            "MH",
            "01-701-1023",
            20,
            "",
            "VERBATIM_1154",
            "ECZEMA",
            "ECZEMA",
            "HLT_0747",
            "HLGT_0748",
            "HISTORICAL DIAGNOSIS",
            "SKIN AND SUBCUTANEOUS TISSUE DISORDERS",
            "",
            1,
            "SCREENING 1",
            -7,
            "2012-07-22",
            "2007",
            -14
          ],
          [
            20,
            "CDISCPILOT01",
            "MH",
            "01-701-1023",
            1,
            "E02",
            "VERBATIM_0249",
            "GASTROESOPHAGEAL REFLUX",
            "GASTROOESOPHAGEAL REFLUX DISEASE",
            "HLT_0407",
            "HLGT_0304",
            "SIGNIFICANT PRE-EXISTING CONDITION",
            "GASTROINTESTINAL DISORDERS",
            "MILD",
            1,
            "SCREENING 1",
            -7,
            "2012-07-22",
            "",
            -14
          ],
          [
            21,
            "CDISCPILOT01",
            "MH",
            "01-701-1023",
            5,
            "E05",
            "VERBATIM_0929",
            "HEADACHE",
            "HEADACHE",
            "HLT_0064",
            "HLGT_0344",
            "SIGNIFICANT PRE-EXISTING CONDITION",
            "NERVOUS SYSTEM DISORDERS",
            "MILD",
            1,
            "SCREENING 1",
            -7,
            "2012-07-22",
            "",
            -14
          ],
          [
            22,
            "CDISCPILOT01",
            "MH",
            "01-701-1023",
            3,
            "E03",
            "VERBATIM_0699",
            "HIATAL HERNIA",
            "HIATUS HERNIA",
            "HLT_0159",
            "HLGT_0109",
            "SIGNIFICANT PRE-EXISTING CONDITION",
            "GASTROINTESTINAL DISORDERS",
            "MILD",
            1,
            "SCREENING 1",
            -7,
            "2012-07-22",
            "",
            -14
          ],
          [
            23,
            "CDISCPILOT01",
            "MH",
            "01-701-1023",
            15,
            "",
            "VERBATIM_0342",
            "HYPERTENSION",
            "HYPERTENSION",
            "HLT_0228",
            "HLGT_0476",
            "HISTORICAL DIAGNOSIS",
            "VASCULAR DISORDERS",
            "",
            1,
            "SCREENING 1",
            -7,
            "2012-07-22",
            "2005-10",
            -14
          ],
          [
            24,
            "CDISCPILOT01",
            "MH",
            "01-701-1023",
            12,
            "",
            "VERBATIM_0596",
            "NUMBNESS OF UPPER ARM",
            "HYPOAESTHESIA",
            "HLT_0014",
            "HLGT_0528",
            "HISTORICAL DIAGNOSIS",
            "NERVOUS SYSTEM DISORDERS",
            "",
            1,
            "SCREENING 1",
            -7,
            "2012-07-22",
            "1982",
            -14
          ],
          [
            25,
            "CDISCPILOT01",
            "MH",
            "01-701-1023",
            13,
            "",
            "VERBATIM_1554",
            "INGUINAL HERNIA REPAIR",
            "INGUINAL HERNIA REPAIR",
            "HLT_0320",
            "HLGT_0772",
            "HISTORICAL DIAGNOSIS",
            "SURGICAL AND MEDICAL PROCEDURES",
            "",
            1,
            "SCREENING 1",
            -7,
            "2012-07-22",
            "1999",
            -14
          ],
          [
            26,
            "CDISCPILOT01",
            "MH",
            "01-701-1023",
            2,
            "E06",
            "VERBATIM_0461",
            "MUSCULAR PAIN",
            "MYALGIA",
            "HLT_0700",
            "HLGT_0121",
            "SIGNIFICANT PRE-EXISTING CONDITION",
            "MUSCULOSKELETAL AND CONNECTIVE TISSUE DISORDERS",
            "MILD",
            1,
            "SCREENING 1",
            -7,
            "2012-07-22",
            "",
            -14
          ],
          [
            27,
            "CDISCPILOT01",
            "MH",
            "01-701-1023",
            7,
            "E07",
            "VERBATIM_1532",
            "MYOPIA",
            "MYOPIA",
            "HLT_0282",
            "HLGT_0271",
            "SIGNIFICANT PRE-EXISTING CONDITION",
            "EYE DISORDERS",
            "MILD",
            1,
            "SCREENING 1",
            -7,
            "2012-07-22",
            "",
            -14
          ],
          [
            28,
            "CDISCPILOT01",
            "MH",
            "01-701-1023",
            18,
            "",
            "VERBATIM_1617",
            "PAIN TRAUMA ACTIVATED",
            "PAIN TRAUMA ACTIVATED",
            "HLT_0579",
            "HLGT_0732",
            "HISTORICAL DIAGNOSIS",
            "INJURY, POISONING AND PROCEDURAL COMPLICATIONS",
            "",
            1,
            "SCREENING 1",
            -7,
            "2012-07-22",
            "2006-04",
            -14
          ],
          [
            29,
            "CDISCPILOT01",
            "MH",
            "01-701-1023",
            17,
            "",
            "VERBATIM_0388",
            "PENILE PROSTHESIS INSERTION",
            "PENILE PROSTHESIS INSERTION",
            "HLT_0448",
            "HLGT_0303",
            "HISTORICAL DIAGNOSIS",
            "SURGICAL AND MEDICAL PROCEDURES",
            "",
            1,
            "SCREENING 1",
            -7,
            "2012-07-22",
            "2006-04",
            -14
          ],
          [
            30,
            "CDISCPILOT01",
            "MH",
            "01-701-1023",
            22,
            "",
            "VERBATIM_1364",
            "ITCHY SKIN",
            "PRURITUS",
            "HLT_0778",
            "HLGT_0695",
            "HISTORICAL DIAGNOSIS",
            "SKIN AND SUBCUTANEOUS TISSUE DISORDERS",
            "",
            1,
            "SCREENING 1",
            -7,
            "2012-07-22",
            "2009",
            -14
          ],
          [
            31,
            "CDISCPILOT01",
            "MH",
            "01-701-1023",
            14,
            "",
            "VERBATIM_1200",
            "SCIATICA",
            "SCIATICA",
            "HLT_0242",
            "HLGT_0293",
            "HISTORICAL DIAGNOSIS",
            "NERVOUS SYSTEM DISORDERS",
            "",
            1,
            "SCREENING 1",
            -7,
            "2012-07-22",
            "2005",
            -14
          ],
          [
            32,
            "CDISCPILOT01",
            "MH",
            "01-701-1023",
            11,
            "",
            "VERBATIM_1769",
            "SINUSITIS",
            "SINUSITIS",
            "HLT_0262",
            "HLGT_0249",
            "HISTORICAL DIAGNOSIS",
            "INFECTIONS AND INFESTATIONS",
            "",
            1,
            "SCREENING 1",
            -7,
            "2012-07-22",
            "1978",
            -14
          ],
          [
            33,
            "CDISCPILOT01",
            "MH",
            "01-701-1023",
            10,
            "",
            "VERBATIM_1002",
            "ELBOW FRACTURE",
            "UPPER LIMB FRACTURE",
            "HLT_0472",
            "HLGT_0247",
            "HISTORICAL DIAGNOSIS",
            "INJURY, POISONING AND PROCEDURAL COMPLICATIONS",
            "",
            1,
            "SCREENING 1",
            -7,
            "2012-07-22",
            "1963",
            -14
          ],
          [
            34,
            "CDISCPILOT01",
            "MH",
            "01-701-1028",
            6,
            "",
            "ALZHEIMER'S DISEASE",
            "",
            "",
            "",
            "",
            "PRIMARY DIAGNOSIS",
            "",
            "",
            1,
            "SCREENING 1",
            -7,
            "2013-07-11",
            "2009-12-16",
            -8
          ],
          [
            35,
            "CDISCPILOT01",
            "MH",
            "01-701-1028",
            4,
            "",
            "VERBATIM_1775",
            "APPENDECTOMY",
            "APPENDICECTOMY",
            "HLT_0707",
            "HLGT_0363",
            "HISTORICAL DIAGNOSIS",
            "SURGICAL AND MEDICAL PROCEDURES",
            "",
            1,
            "SCREENING 1",
            -7,
            "2013-07-11",
            "1968",
            -8
          ],
          [
            36,
            "CDISCPILOT01",
            "MH",
            "01-701-1028",
            3,
            "E02",
            "VERBATIM_1686",
            "ARTHRITIS",
            "ARTHRITIS",
            "HLT_0019",
            "HLGT_0587",
            "SIGNIFICANT PRE-EXISTING CONDITION",
            "MUSCULOSKELETAL AND CONNECTIVE TISSUE DISORDERS",
            "MODERATE",
            1,
            "SCREENING 1",
            -7,
            "2013-07-11",
            "",
            -8
          ],
          [
            37,
            "CDISCPILOT01",
            "MH",
            "01-701-1028",
            5,
            "",
            "VERBATIM_1006",
            "LIPECTOMY",
            "LIPECTOMY",
            "HLT_0233",
            "HLGT_0786",
            "HISTORICAL DIAGNOSIS",
            "SURGICAL AND MEDICAL PROCEDURES",
            "",
            1,
            "SCREENING 1",
            -7,
            "2013-07-11",
            "1981",
            -8
          ],
          [
            38,
            "CDISCPILOT01",
            "MH",
            "01-701-1028",
            1,
            "E01",
            "VERBATIM_0428",
            "LIPOMA",
            "LIPOMA",
            "HLT_0487",
            "HLGT_0591",
            "SIGNIFICANT PRE-EXISTING CONDITION",
            "NEOPLASMS BENIGN, MALIGNANT AND UNSPECIFIED (INCL CYSTS AND POLYPS)",
            "MODERATE",
            1,
            "SCREENING 1",
            -7,
            "2013-07-11",
            "",
            -8
          ],
          [
            39,
            "CDISCPILOT01",
            "MH",
            "01-701-1028",
            2,
            "E03",
            "VERBATIM_0507",
            "PRESBYOPIA",
            "PRESBYOPIA",
            "HLT_0230",
            "HLGT_0759",
            "SIGNIFICANT PRE-EXISTING CONDITION",
            "EYE DISORDERS",
            "MILD",
            1,
            "SCREENING 1",
            -7,
            "2013-07-11",
            "",
            -8
          ],
          [
            40,
            "CDISCPILOT01",
            "MH",
            "01-701-1033",
            26,
            "",
            "ALZHEIMER'S DISEASE",
            "",
            "",
            "",
            "",
            "PRIMARY DIAGNOSIS",
            "",
            "",
            1,
            "SCREENING 1",
            -7,
            "2014-03-10",
            "2009-08-02",
            -8
          ],
          [
            41,
            "CDISCPILOT01",
            "MH",
            "01-701-1033",
            4,
            "E09",
            "VERBATIM_0746",
            "ANGINA PECTORIS",
            "ANGINA PECTORIS",
            "HLT_0033",
            "HLGT_0063",
            "SIGNIFICANT PRE-EXISTING CONDITION",
            "CARDIAC DISORDERS",
            "MILD",
            1,
            "SCREENING 1",
            -7,
            "2014-03-10",
            "",
            -8
          ],
          [
            42,
            "CDISCPILOT01",
            "MH",
            "01-701-1033",
            3,
            "E05",
            "VERBATIM_0672",
            "KNEE PAIN",
            "ARTHRALGIA",
            "HLT_0375",
            "HLGT_0610",
            "SIGNIFICANT PRE-EXISTING CONDITION",
            "MUSCULOSKELETAL AND CONNECTIVE TISSUE DISORDERS",
            "MILD",
            1,
            "SCREENING 1",
            -7,
            "2014-03-10",
            "",
            -8
          ],
          [
            43,
            "CDISCPILOT01",
            "MH",
            "01-701-1033",
            2,
            "E03",
            "VERBATIM_0165",
            "BALANCE DIFFICULTY",
            "BALANCE DISORDER",
            "HLT_0541",
            "HLGT_0101",
            "SIGNIFICANT PRE-EXISTING CONDITION",
            "NERVOUS SYSTEM DISORDERS",
            "MILD",
            1,
            "SCREENING 1",
            -7,
            "2014-03-10",
            "",
            -8
          ],
          [
            44,
            "CDISCPILOT01",
            "MH",
            "01-701-1033",
            1,
            "E02",
            "VERBATIM_0138",
            "BENIGN PROSTATIC HYPERTROPHY",
            "BENIGN PROSTATIC HYPERPLASIA",
            "HLT_0215",
            "HLGT_0568",
            "SIGNIFICANT PRE-EXISTING CONDITION",
            "REPRODUCTIVE SYSTEM AND BREAST DISORDERS",
            "MILD",
            1,
            "SCREENING 1",
            -7,
            "2014-03-10",
            "",
            -8
          ],
          [
            45,
            "CDISCPILOT01",
            "MH",
            "01-701-1033",
            6,
            "E08",
            "VERBATIM_1421",
            "COUGH",
            "COUGH",
            "HLT_0701",
            "HLGT_0280",
            "SIGNIFICANT PRE-EXISTING CONDITION",
            "RESPIRATORY, THORACIC AND MEDIASTINAL DISORDERS",
            "MILD",
            1,
            "SCREENING 1",
            -7,
            "2014-03-10",
            "",
            -8
          ],
          [
            46,
            "CDISCPILOT01",
            "MH",
            "01-701-1033",
            24,
            "",
            "VERBATIM_0816",
            "EOSINOPHILIC PNEUMONIA",
            "EOSINOPHILIC PNEUMONIA",
            "HLT_0207",
            "HLGT_0529",
            "HISTORICAL DIAGNOSIS",
            "RESPIRATORY, THORACIC AND MEDIASTINAL DISORDERS",
            "",
            1,
            "SCREENING 1",
            -7,
            "2014-03-10",
            "2008",
            -8
          ],
          [
            47,
            "CDISCPILOT01",
            "MH",
            "01-701-1033",
            18,
            "",
            "VERBATIM_0991",
            "HAND REPAIR OPERATION",
            "HAND REPAIR OPERATION",
            "HLT_0581",
            "HLGT_0276",
            "HISTORICAL DIAGNOSIS",
            "SURGICAL AND MEDICAL PROCEDURES",
            "",
            1,
            "SCREENING 1",
            -7,
            "2014-03-10",
            "1982",
            -8
          ],
          [
            48,
            "CDISCPILOT01",
            "MH",
            "01-701-1033",
            14,
            "",
            "VERBATIM_0201",
            "IRON DEFICIENCY ANEMIA",
            "IRON DEFICIENCY ANAEMIA",
            "HLT_0331",
            "HLGT_0739",
            "HISTORICAL DIAGNOSIS",
            "BLOOD AND LYMPHATIC SYSTEM DISORDERS",
            "",
            1,
            "SCREENING 1",
            -7,
            "2014-03-10",
            "1972",
            -8
          ],
          [
            49,
            "CDISCPILOT01",
            "MH",
            "01-701-1033",
            23,
            "",
            "VERBATIM_1457",
            "FRACTURED JAW",
            "JAW FRACTURE",
            "HLT_0488",
            "HLGT_0420",
            "HISTORICAL DIAGNOSIS",
            "INJURY, POISONING AND PROCEDURAL COMPLICATIONS",
            "",
            1,
            "SCREENING 1",
            -7,
            "2014-03-10",
            "2007",
            -8
          ],
          [
            50,
            "CDISCPILOT01",
            "MH",
            "01-701-1033",
            25,
            "",
            "VERBATIM_1209",
            "JOINT PROSTHESIS INSERTION",
            "JOINT ARTHROPLASTY",
            "HLT_0416",
            "HLGT_0120",
            "HISTORICAL DIAGNOSIS",
            "SURGICAL AND MEDICAL PROCEDURES",
            "",
            1,
            "SCREENING 1",
            -7,
            "2014-03-10",
            "2008",
            -8
          ],
          [
            51,
            "CDISCPILOT01",
            "MH",
            "01-701-1033",
            15,
            "",
            "VERBATIM_0429",
            "LACERATION",
            "LACERATION",
            "HLT_0668",
            "HLGT_0567",
            "HISTORICAL DIAGNOSIS",
            "INJURY, POISONING AND PROCEDURAL COMPLICATIONS",
            "",
            1,
            "SCREENING 1",
            -7,
            "2014-03-10",
            "1982",
            -8
          ],
          [
            52,
            "CDISCPILOT01",
            "MH",
            "01-701-1033",
            13,
            "",
            "VERBATIM_1425",
            "LOCALIZED EDEMA",
            "LOCALISED OEDEMA",
            "HLT_0410",
            "HLGT_0372",
            "HISTORICAL DIAGNOSIS",
            "GENERAL DISORDERS AND ADMINISTRATION SITE CONDITIONS",
            "",
            1,
            "SCREENING 1",
            -7,
            "2014-03-10",
            "1964",
            -8
          ],
          [
            53,
            "CDISCPILOT01",
            "MH",
            "01-701-1033",
            5,
            "E04",
            "VERBATIM_0858",
            "GONARTHRITIS",
            "MONARTHRITIS",
            "HLT_0592",
            "HLGT_0196",
            "SIGNIFICANT PRE-EXISTING CONDITION",
            "MUSCULOSKELETAL AND CONNECTIVE TISSUE DISORDERS",
            "MILD",
            1,
            "SCREENING 1",
            -7,
            "2014-03-10",
            "",
            -8
          ],
          [
            54,
            "CDISCPILOT01",
            "MH",
            "01-701-1033",
            7,
            "E06",
            "VERBATIM_1532",
            "MYOPIA",
            "MYOPIA",
            "HLT_0282",
            "HLGT_0271",
            "SIGNIFICANT PRE-EXISTING CONDITION",
            "EYE DISORDERS",
            "MILD",
            1,
            "SCREENING 1",
            -7,
            "2014-03-10",
            "",
            -8
          ],
          [
            55,
            "CDISCPILOT01",
            "MH",
            "01-701-1033",
            8,
            "E07",
            "VERBATIM_1612",
            "NASAL CONGESTION",
            "NASAL CONGESTION",
            "HLT_0118",
            "HLGT_0549",
            "SIGNIFICANT PRE-EXISTING CONDITION",
            "RESPIRATORY, THORACIC AND MEDIASTINAL DISORDERS",
            "MILD",
            1,
            "SCREENING 1",
            -7,
            "2014-03-10",
            "",
            -8
          ],
          [
            56,
            "CDISCPILOT01",
            "MH",
            "01-701-1033",
            11,
            "",
            "VERBATIM_0868",
            "NERVE COMPRESSION",
            "NERVE COMPRESSION",
            "HLT_0463",
            "HLGT_0502",
            "HISTORICAL DIAGNOSIS",
            "NERVOUS SYSTEM DISORDERS",
            "",
            1,
            "SCREENING 1",
            -7,
            "2014-03-10",
            "1955",
            -8
          ],
          [
            57,
            "CDISCPILOT01",
            "MH",
            "01-701-1033",
            9,
            "E01",
            "VERBATIM_1653",
            "ANKLE EDEMA",
            "OEDEMA PERIPHERAL",
            "HLT_0661",
            "HLGT_0137",
            "SIGNIFICANT PRE-EXISTING CONDITION",
            "GENERAL DISORDERS AND ADMINISTRATION SITE CONDITIONS",
            "MILD",
            1,
            "SCREENING 1",
            -7,
            "2014-03-10",
            "",
            -8
          ],
          [
            58,
            "CDISCPILOT01",
            "MH",
            "01-701-1033",
            12,
            "",
            "VERBATIM_1594",
            "PLEURISY",
            "PLEURISY",
            "HLT_0268",
            "HLGT_0356",
            "HISTORICAL DIAGNOSIS",
            "RESPIRATORY, THORACIC AND MEDIASTINAL DISORDERS",
            "",
            1,
            "SCREENING 1",
            -7,
            "2014-03-10",
            "1955",
            -8
          ],
          [
            59,
            "CDISCPILOT01",
            "MH",
            "01-701-1033",
            21,
            "",
            "VERBATIM_0870",
            "FRACTURED RIBS",
            "RIB FRACTURE",
            "HLT_0292",
            "HLGT_0583",
            "HISTORICAL DIAGNOSIS",
            "INJURY, POISONING AND PROCEDURAL COMPLICATIONS",
            "",
            1,
            "SCREENING 1",
            -7,
            "2014-03-10",
            "2007",
            -8
          ],
          [
            60,
            "CDISCPILOT01",
            "MH",
            "01-701-1033",
            17,
            "",
            "VERBATIM_0752",
            "LOSS OF SENSATION",
            "SENSORY LOSS",
            "HLT_0164",
            "HLGT_0718",
            "HISTORICAL DIAGNOSIS",
            "NERVOUS SYSTEM DISORDERS",
            "",
            1,
            "SCREENING 1",
            -7,
            "2014-03-10",
            "1982",
            -8
          ],
          [
            61,
            "CDISCPILOT01",
            "MH",
            "01-701-1033",
            16,
            "",
            "VERBATIM_0581",
            "FAINTING",
            "SYNCOPE",
            "HLT_0440",
            "HLGT_0310",
            "HISTORICAL DIAGNOSIS",
            "NERVOUS SYSTEM DISORDERS",
            "",
            1,
            "SCREENING 1",
            -7,
            "2014-03-10",
            "1982",
            -8
          ],
          [
            62,
            "CDISCPILOT01",
            "MH",
            "01-701-1033",
            10,
            "",
            "VERBATIM_1716",
            "TONSILLECTOMY",
            "TONSILLECTOMY",
            "HLT_0202",
            "HLGT_0199",
            "HISTORICAL DIAGNOSIS",
            "SURGICAL AND MEDICAL PROCEDURES",
            "",
            1,
            "SCREENING 1",
            -7,
            "2014-03-10",
            "1951",
            -8
          ],
          [
            63,
            "CDISCPILOT01",
            "MH",
            "01-701-1033",
            20,
            "",
            "VERBATIM_1756",
            "UMBILICAL HERNIA",
            "UMBILICAL HERNIA",
            "HLT_0067",
            "HLGT_0187",
            "HISTORICAL DIAGNOSIS",
            "GASTROINTESTINAL DISORDERS",
            "",
            1,
            "SCREENING 1",
            -7,
            "2014-03-10",
            "1993",
            -8
          ],
          [
            64,
            "CDISCPILOT01",
            "MH",
            "01-701-1033",
            19,
            "",
            "VERBATIM_0116",
            "UMBILICAL HERNIA REPAIR",
            "UMBILICAL HERNIA REPAIR",
            "HLT_0278",
            "HLGT_0377",
            "HISTORICAL DIAGNOSIS",
            "SURGICAL AND MEDICAL PROCEDURES",
            "",
            1,
            "SCREENING 1",
            -7,
            "2014-03-10",
            "1993",
            -8
          ],
          [
            65,
            "CDISCPILOT01",
            "MH",
            "01-701-1033",
            22,
            "",
            "VERBATIM_1156",
            "ELBOW FRACTURE",
            "UPPER LIMB FRACTURE",
            "HLT_0472",
            "HLGT_0247",
            "HISTORICAL DIAGNOSIS",
            "INJURY, POISONING AND PROCEDURAL COMPLICATIONS",
            "",
            1,
            "SCREENING 1",
            -7,
            "2014-03-10",
            "2007",
            -8
          ],
          [
            66,
            "CDISCPILOT01",
            "MH",
            "01-701-1034",
            13,
            "",
            "ALZHEIMER'S DISEASE",
            "",
            "",
            "",
            "",
            "PRIMARY DIAGNOSIS",
            "",
            "",
            1,
            "SCREENING 1",
            -7,
            "2014-06-24",
            "2011-09-29",
            -7
          ],
          [
            67,
            "CDISCPILOT01",
            "MH",
            "01-701-1034",
            5,
            "E01",
            "VERBATIM_1385",
            "ABDOMINAL PAIN",
            "ABDOMINAL PAIN",
            "HLT_0217",
            "HLGT_0419",
            "SIGNIFICANT PRE-EXISTING CONDITION",
            "GASTROINTESTINAL DISORDERS",
            "MILD",
            1,
            "SCREENING 1",
            -7,
            "2014-06-24",
            "",
            -7
          ],
          [
            68,
            "CDISCPILOT01",
            "MH",
            "01-701-1034",
            10,
            "",
            "VERBATIM_1133",
            "RECTAL FISTULA",
            "ANAL FISTULA",
            "HLT_0653",
            "HLGT_0268",
            "HISTORICAL DIAGNOSIS",
            "GASTROINTESTINAL DISORDERS",
            "",
            1,
            "SCREENING 1",
            -7,
            "2014-06-24",
            "1962",
            -7
          ],
          [
            69,
            "CDISCPILOT01",
            "MH",
            "01-701-1034",
            8,
            "",
            "VERBATIM_1775",
            "APPENDECTOMY",
            "APPENDICECTOMY",
            "HLT_0707",
            "HLGT_0363",
            "HISTORICAL DIAGNOSIS",
            "SURGICAL AND MEDICAL PROCEDURES",
            "",
            1,
            "SCREENING 1",
            -7,
            "2014-06-24",
            "1949",
            -7
          ],
          [
            70,
            "CDISCPILOT01",
            "MH",
            "01-701-1034",
            3,
            "E06",
            "VERBATIM_0753",
            "ARTHRITIS",
            "ARTHRITIS",
            "HLT_0019",
            "HLGT_0587",
            "SIGNIFICANT PRE-EXISTING CONDITION",
            "MUSCULOSKELETAL AND CONNECTIVE TISSUE DISORDERS",
            "MILD",
            1,
            "SCREENING 1",
            -7,
            "2014-06-24",
            "",
            -7
          ],
          [
            71,
            "CDISCPILOT01",
            "MH",
            "01-701-1034",
            4,
            "E04",
            "VERBATIM_0763",
            "ARTHRITIS",
            "ARTHRITIS",
            "HLT_0019",
            "HLGT_0587",
            "SIGNIFICANT PRE-EXISTING CONDITION",
            "MUSCULOSKELETAL AND CONNECTIVE TISSUE DISORDERS",
            "MILD",
            1,
            "SCREENING 1",
            -7,
            "2014-06-24",
            "",
            -7
          ],
          [
            72,
            "CDISCPILOT01",
            "MH",
            "01-701-1034",
            16,
            "",
            "VERBATIM_1680",
            "BLOOD PRESSURE INCREASED",
            "BLOOD PRESSURE INCREASED",
            "HLT_0399",
            "HLGT_0647",
            "HISTORICAL DIAGNOSIS",
            "INVESTIGATIONS",
            "",
            1,
            "SCREENING 1",
            -7,
            "2014-06-24",
            "2014-06-11",
            -7
          ],
          [
            73,
            "CDISCPILOT01",
            "MH",
            "01-701-1034",
            1,
            "E02",
            "VERBATIM_0443",
            "CONSTIPATION",
            "CONSTIPATION",
            "HLT_0402",
            "HLGT_0635",
            "SIGNIFICANT PRE-EXISTING CONDITION",
            "GASTROINTESTINAL DISORDERS",
            "MILD",
            1,
            "SCREENING 1",
            -7,
            "2014-06-24",
            "",
            -7
          ],
          [
            74,
            "CDISCPILOT01",
            "MH",
            "01-701-1034",
            12,
            "",
            "VERBATIM_1162",
            "FACE LIFT",
            "FACE LIFT",
            "HLT_0743",
            "HLGT_0520",
            "HISTORICAL DIAGNOSIS",
            "SURGICAL AND MEDICAL PROCEDURES",
            "",
            1,
            "SCREENING 1",
            -7,
            "2014-06-24",
            "2011-08-21",
            -7
          ],
          [
            75,
            "CDISCPILOT01",
            "MH",
            "01-701-1034",
            11,
            "",
            "VERBATIM_1132",
            "FOOT FRACTURE",
            "FOOT FRACTURE",
            "HLT_0768",
            "HLGT_0287",
            "HISTORICAL DIAGNOSIS",
            "INJURY, POISONING AND PROCEDURAL COMPLICATIONS",
            "",
            1,
            "SCREENING 1",
            -7,
            "2014-06-24",
            "2004",
            -7
          ],
          [
            76,
            "CDISCPILOT01",
            "MH",
            "01-701-1034",
            6,
            "E05",
            "VERBATIM_1683",
            "HYPEROPIA",
            "HYPERMETROPIA",
            "HLT_0546",
            "HLGT_0646",
            "SIGNIFICANT PRE-EXISTING CONDITION",
            "EYE DISORDERS",
            "MILD",
            1,
            "SCREENING 1",
            -7,
            "2014-06-24",
            "",
            -7
          ],
          [
            77,
            "CDISCPILOT01",
            "MH",
            "01-701-1034",
            2,
            "E03",
            "VERBATIM_0692",
            "HYPOTHYROIDISM",
            "HYPOTHYROIDISM",
            "HLT_0454",
            "HLGT_0558",
            "SIGNIFICANT PRE-EXISTING CONDITION",
            "ENDOCRINE DISORDERS",
            "MILD",
            1,
            "SCREENING 1",
            -7,
            "2014-06-24",
            "",
            -7
          ],
          [
            78,
            "CDISCPILOT01",
            "MH",
            "01-701-1034",
            9,
            "",
            "VERBATIM_0936",
            "HYSTERECTOMY",
            "HYSTERECTOMY",
            "HLT_0675",
            "HLGT_0657",
            "HISTORICAL DIAGNOSIS",
            "SURGICAL AND MEDICAL PROCEDURES",
            "",
            1,
            "SCREENING 1",
            -7,
            "2014-06-24",
            "1960",
            -7
          ],
          [
            79,
            "CDISCPILOT01",
            "MH",
            "01-701-1034",
            14,
            "",
            "VERBATIM_0122",
            "LEG FRACTURE",
            "LOWER LIMB FRACTURE",
            "HLT_0348",
            "HLGT_0435",
            "HISTORICAL DIAGNOSIS",
            "INJURY, POISONING AND PROCEDURAL COMPLICATIONS",
            "",
            1,
            "SCREENING 1",
            -7,
            "2014-06-24",
            "2012",
            -7
          ],
          [
            80,
            "CDISCPILOT01",
            "MH",
            "01-701-1034",
            15,
            "",
            "VERBATIM_0973",
            "MUSCLE SPASMS",
            "MUSCLE SPASMS",
            "HLT_0078",
            "HLGT_0750",
            "HISTORICAL DIAGNOSIS",
            "MUSCULOSKELETAL AND CONNECTIVE TISSUE DISORDERS",
            "",
            1,
            "SCREENING 1",
            -7,
            "2014-06-24",
            "2013-12-21",
            -7
          ],
          [
            81,
            "CDISCPILOT01",
            "MH",
            "01-701-1034",
            7,
            "",
            "VERBATIM_1716",
            "TONSILLECTOMY",
            "TONSILLECTOMY",
            "HLT_0202",
            "HLGT_0199",
            "HISTORICAL DIAGNOSIS",
            "SURGICAL AND MEDICAL PROCEDURES",
            "",
            1,
            "SCREENING 1",
            -7,
            "2014-06-24",
            "1946",
            -7
          ],
          [
            82,
            "CDISCPILOT01",
            "MH",
            "01-701-1047",
            14,
            "",
            "ALZHEIMER'S DISEASE",
            "",
            "",
            "",
            "",
            "PRIMARY DIAGNOSIS",
            "",
            "",
            1,
            "SCREENING 1",
            -7,
            "2013-01-22",
            "2009-07-26",
            -21
          ],
          [
            83,
            "CDISCPILOT01",
            "MH",
            "01-701-1047",
            5,
            "E04",
            "VERBATIM_1245",
            "ARTHRITIS",
            "ARTHRITIS",
            "HLT_0019",
            "HLGT_0587",
            "SIGNIFICANT PRE-EXISTING CONDITION",
            "MUSCULOSKELETAL AND CONNECTIVE TISSUE DISORDERS",
            "MILD",
            1,
            "SCREENING 1",
            -7,
            "2013-01-22",
            "",
            -21
          ],
          [
            84,
            "CDISCPILOT01",
            "MH",
            "01-701-1047",
            12,
            "",
            "VERBATIM_0514",
            "CATARACT OPERATION",
            "CATARACT OPERATION",
            "HLT_0432",
            "HLGT_0058",
            "HISTORICAL DIAGNOSIS",
            "SURGICAL AND MEDICAL PROCEDURES",
            "",
            1,
            "SCREENING 1",
            -7,
            "2013-01-22",
            "2009",
            -21
          ],
          [
            85,
            "CDISCPILOT01",
            "MH",
            "01-701-1047",
            16,
            "",
            "VERBATIM_0675",
            "CATARACT OPERATION",
            "CATARACT OPERATION",
            "HLT_0432",
            "HLGT_0058",
            "HISTORICAL DIAGNOSIS",
            "SURGICAL AND MEDICAL PROCEDURES",
            "",
            1,
            "SCREENING 1",
            -7,
            "2013-01-22",
            "2012",
            -21
          ],
          [
            86,
            "CDISCPILOT01",
            "MH",
            "01-701-1047",
            11,
            "",
            "VERBATIM_1324",
            "CHOLECYSTECTOMY",
            "CHOLECYSTECTOMY",
            "HLT_0149",
            "HLGT_0074",
            "HISTORICAL DIAGNOSIS",
            "SURGICAL AND MEDICAL PROCEDURES",
            "",
            1,
            "SCREENING 1",
            -7,
            "2013-01-22",
            "1987",
            -21
          ],
          [
            87,
            "CDISCPILOT01",
            "MH",
            "01-701-1047",
            15,
            "",
            "VERBATIM_0361",
            "BLADDER INFECTION",
            "CYSTITIS",
            "HLT_0739",
            "HLGT_0129",
            "HISTORICAL DIAGNOSIS",
            "INFECTIONS AND INFESTATIONS",
            "",
            1,
            "SCREENING 1",
            -7,
            "2013-01-22",
            "2012",
            -21
          ],
          [
            88,
            "CDISCPILOT01",
            "MH",
            "01-701-1047",
            13,
            "",
            "VERBATIM_1684",
            "HEMORRHOIDS",
            "HAEMORRHOIDS",
            "HLT_0681",
            "HLGT_0485",
            "HISTORICAL DIAGNOSIS",
            "GASTROINTESTINAL DISORDERS",
            "",
            1,
            "SCREENING 1",
            -7,
            "2013-01-22",
            "2009",
            -21
          ],
          [
            89,
            "CDISCPILOT01",
            "MH",
            "01-701-1047",
            3,
            "E01",
            "VERBATIM_0699",
            "HIATAL HERNIA",
            "HIATUS HERNIA",
            "HLT_0159",
            "HLGT_0109",
            "SIGNIFICANT PRE-EXISTING CONDITION",
            "GASTROINTESTINAL DISORDERS",
            "MILD",
            1,
            "SCREENING 1",
            -7,
            "2013-01-22",
            "",
            -21
          ],
          [
            90,
            "CDISCPILOT01",
            "MH",
            "01-701-1047",
            2,
            "E07",
            "VERBATIM_0538",
            "NUMBNESS IN HAND",
            "HYPOAESTHESIA",
            "HLT_0014",
            "HLGT_0528",
            "SIGNIFICANT PRE-EXISTING CONDITION",
            "NERVOUS SYSTEM DISORDERS",
            "MILD",
            1,
            "SCREENING 1",
            -7,
            "2013-01-22",
            "",
            -21
          ],
          [
            91,
            "CDISCPILOT01",
            "MH",
            "01-701-1047",
            6,
            "E02",
            "VERBATIM_1512",
            "HYPOTHYROIDISM",
            "HYPOTHYROIDISM",
            "HLT_0454",
            "HLGT_0558",
            "SIGNIFICANT PRE-EXISTING CONDITION",
            "ENDOCRINE DISORDERS",
            "MILD",
            1,
            "SCREENING 1",
            -7,
            "2013-01-22",
            "",
            -21
          ],
          [
            92,
            "CDISCPILOT01",
            "MH",
            "01-701-1047",
            9,
            "",
            "VERBATIM_0936",
            "HYSTERECTOMY",
            "HYSTERECTOMY",
            "HLT_0675",
            "HLGT_0657",
            "HISTORICAL DIAGNOSIS",
            "SURGICAL AND MEDICAL PROCEDURES",
            "",
            1,
            "SCREENING 1",
            -7,
            "2013-01-22",
            "1967",
            -21
          ],
          [
            93,
            "CDISCPILOT01",
            "MH",
            "01-701-1047",
            4,
            "E10",
            "VERBATIM_0918",
            "EDEMATOUS FEET",
            "OEDEMA PERIPHERAL",
            "HLT_0661",
            "HLGT_0137",
            "SIGNIFICANT PRE-EXISTING CONDITION",
            "GENERAL DISORDERS AND ADMINISTRATION SITE CONDITIONS",
            "MILD",
            1,
            "SCREENING 1",
            -7,
            "2013-01-22",
            "",
            -21
          ],
          [
            94,
            "CDISCPILOT01",
            "MH",
            "01-701-1047",
            1,
            "E03",
            "VERBATIM_0253",
            "PSORIASIS",
            "PSORIASIS",
            "HLT_0740",
            "HLGT_0038",
            "SIGNIFICANT PRE-EXISTING CONDITION",
            "SKIN AND SUBCUTANEOUS TISSUE DISORDERS",
            "MILD",
            1,
            "SCREENING 1",
            -7,
            "2013-01-22",
            "",
            -21
          ],
          [
            95,
            "CDISCPILOT01",
            "MH",
            "01-701-1047",
            7,
            "E05",
            "VERBATIM_1769",
            "SINUSITIS",
            "SINUSITIS",
            "HLT_0262",
            "HLGT_0249",
            "SIGNIFICANT PRE-EXISTING CONDITION",
            "INFECTIONS AND INFESTATIONS",
            "MILD",
            1,
            "SCREENING 1",
            -7,
            "2013-01-22",
            "",
            -21
          ],
          [
            96,
            "CDISCPILOT01",
            "MH",
            "01-701-1047",
            8,
            "",
            "VERBATIM_1716",
            "TONSILLECTOMY",
            "TONSILLECTOMY",
            "HLT_0202",
            "HLGT_0199",
            "HISTORICAL DIAGNOSIS",
            "SURGICAL AND MEDICAL PROCEDURES",
            "",
            1,
            "SCREENING 1",
            -7,
            "2013-01-22",
            "1937",
            -21
          ],
          [
            97,
            "CDISCPILOT01",
            "MH",
            "01-701-1047",
            10,
            "",
            "VERBATIM_1041",
            "ULCER",
            "ULCER",
            "HLT_0040",
            "HLGT_0245",
            "HISTORICAL DIAGNOSIS",
            "GENERAL DISORDERS AND ADMINISTRATION SITE CONDITIONS",
            "",
            1,
            "SCREENING 1",
            -7,
            "2013-01-22",
            "1971",
            -21
          ],
          [
            98,
            "CDISCPILOT01",
            "MH",
            "01-701-1097",
            4,
            "",
            "ALZHEIMER'S DISEASE",
            "",
            "",
            "",
            "",
            "PRIMARY DIAGNOSIS",
            "",
            "",
            1,
            "SCREENING 1",
            -7,
            "2013-12-23",
            "2005-09-22",
            -9
          ],
          [
            99,
            "CDISCPILOT01",
            "MH",
            "01-701-1097",
            6,
            "",
            "VERBATIM_0935",
            "GINGIVAL OPERATION",
            "GINGIVAL OPERATION",
            "HLT_0004",
            "HLGT_0266",
            "HISTORICAL DIAGNOSIS",
            "SURGICAL AND MEDICAL PROCEDURES",
            "",
            1,
            "SCREENING 1",
            -7,
            "2013-12-23",
            "2013-04",
            -9
          ],
          [
            100,
            "CDISCPILOT01",
            "MH",
            "01-701-1097",
            5,
            "",
            "VERBATIM_0663",
            "GINGIVITIS",
            "GINGIVITIS",
            "HLT_0093",
            "HLGT_0685",
            "HISTORICAL DIAGNOSIS",
            "GASTROINTESTINAL DISORDERS",
            "",
            1,
            "SCREENING 1",
            -7,
            "2013-12-23",
            "2013-04",
            -9
          ],
          [
            101,
            "CDISCPILOT01",
            "MH",
            "01-701-1097",
            2,
            "E01",
            "VERBATIM_0662",
            "GONARTHRITIS",
            "MONARTHRITIS",
            "HLT_0592",
            "HLGT_0196",
            "SIGNIFICANT PRE-EXISTING CONDITION",
            "MUSCULOSKELETAL AND CONNECTIVE TISSUE DISORDERS",
            "MILD",
            1,
            "SCREENING 1",
            -7,
            "2013-12-23",
            "",
            -9
          ],
          [
            102,
            "CDISCPILOT01",
            "MH",
            "01-701-1097",
            1,
            "E02",
            "VERBATIM_0507",
            "PRESBYOPIA",
            "PRESBYOPIA",
            "HLT_0230",
            "HLGT_0759",
            "SIGNIFICANT PRE-EXISTING CONDITION",
            "EYE DISORDERS",
            "MILD",
            1,
            "SCREENING 1",
            -7,
            "2013-12-23",
            "",
            -9
          ],
          [
            103,
            "CDISCPILOT01",
            "MH",
            "01-701-1097",
            3,
            "E03",
            "VERBATIM_1769",
            "SINUSITIS",
            "SINUSITIS",
            "HLT_0262",
            "HLGT_0249",
            "SIGNIFICANT PRE-EXISTING CONDITION",
            "INFECTIONS AND INFESTATIONS",
            "MILD",
            1,
            "SCREENING 1",
            -7,
            "2013-12-23",
            "",
            -9
          ],
          [
            104,
            "CDISCPILOT01",
            "MH",
            "01-701-1111",
            29,
            "",
            "ALZHEIMER'S DISEASE",
            "",
            "",
            "",
            "",
            "PRIMARY DIAGNOSIS",
            "",
            "",
            1,
            "SCREENING 1",
            -7,
            "2012-08-25",
            "2009-04-04",
            -13
          ],
          [
            105,
            "CDISCPILOT01",
            "MH",
            "01-701-1111",
            25,
            "",
            "VERBATIM_0846",
            "SKIN TAGS",
            "ACROCHORDON",
            "HLT_0622",
            "HLGT_0452",
            "HISTORICAL DIAGNOSIS",
            "NEOPLASMS BENIGN, MALIGNANT AND UNSPECIFIED (INCL CYSTS AND POLYPS)",
            "",
            1,
            "SCREENING 1",
            -7,
            "2012-08-25",
            "2006",
            -13
          ],
          [
            106,
            "CDISCPILOT01",
            "MH",
            "01-701-1111",
            14,
            "",
            "VERBATIM_1775",
            "APPENDECTOMY",
            "APPENDICECTOMY",
            "HLT_0707",
            "HLGT_0363",
            "HISTORICAL DIAGNOSIS",
            "SURGICAL AND MEDICAL PROCEDURES",
            "",
            1,
            "SCREENING 1",
            -7,
            "2012-08-25",
            "1946",
            -13
          ],
          [
            107,
            "CDISCPILOT01",
            "MH",
            "01-701-1111",
            7,
            "E07",
            "VERBATIM_1309",
            "ARTHRITIS",
            "ARTHRITIS",
            "HLT_0019",
            "HLGT_0587",
            "SIGNIFICANT PRE-EXISTING CONDITION",
            "MUSCULOSKELETAL AND CONNECTIVE TISSUE DISORDERS",
            "MILD",
            1,
            "SCREENING 1",
            -7,
            "2012-08-25",
            "",
            -13
          ],
          [
            108,
            "CDISCPILOT01",
            "MH",
            "01-701-1111",
            10,
            "E08",
            "VERBATIM_1583",
            "BACK PAIN",
            "BACK PAIN",
            "HLT_0115",
            "HLGT_0508",
            "SIGNIFICANT PRE-EXISTING CONDITION",
            "MUSCULOSKELETAL AND CONNECTIVE TISSUE DISORDERS",
            "MILD",
            1,
            "SCREENING 1",
            -7,
            "2012-08-25",
            "",
            -13
          ],
          [
            109,
            "CDISCPILOT01",
            "MH",
            "01-701-1111",
            27,
            "",
            "VERBATIM_0951",
            "BASAL CELL CARCINOMA",
            "BASAL CELL CARCINOMA",
            "HLT_0332",
            "HLGT_0328",
            "HISTORICAL DIAGNOSIS",
            "NEOPLASMS BENIGN, MALIGNANT AND UNSPECIFIED (INCL CYSTS AND POLYPS)",
            "",
            1,
            "SCREENING 1",
            -7,
            "2012-08-25",
            "2007",
            -13
          ],
          [
            110,
            "CDISCPILOT01",
            "MH",
            "01-701-1111",
            8,
            "E10",
            "VERBATIM_1384",
            "EYEGLASSES WEARER",
            "CORRECTIVE LENS USER",
            "HLT_0776",
            "HLGT_0407",
            "SIGNIFICANT PRE-EXISTING CONDITION",
            "SOCIAL CIRCUMSTANCES",
            "MILD",
            1,
            "SCREENING 1",
            -7,
            "2012-08-25",
            "",
            -13
          ],
          [
            111,
            "CDISCPILOT01",
            "MH",
            "01-701-1111",
            24,
            "",
            "VERBATIM_0910",
            "COUGH",
            "COUGH",
            "HLT_0701",
            "HLGT_0280",
            "HISTORICAL DIAGNOSIS",
            "RESPIRATORY, THORACIC AND MEDIASTINAL DISORDERS",
            "",
            1,
            "SCREENING 1",
            -7,
            "2012-08-25",
            "2002",
            -13
          ],
          [
            112,
            "CDISCPILOT01",
            "MH",
            "01-701-1111",
            23,
            "",
            "VERBATIM_0361",
            "BLADDER INFECTION",
            "CYSTITIS",
            "HLT_0739",
            "HLGT_0129",
            "HISTORICAL DIAGNOSIS",
            "INFECTIONS AND INFESTATIONS",
            "",
            1,
            "SCREENING 1",
            -7,
            "2012-08-25",
            "2002",
            -13
          ],
          [
            113,
            "CDISCPILOT01",
            "MH",
            "01-701-1111",
            1,
            "E11",
            "VERBATIM_0546",
            "HEARING LOSS",
            "DEAFNESS",
            "HLT_0234",
            "HLGT_0025",
            "SIGNIFICANT PRE-EXISTING CONDITION",
            "EAR AND LABYRINTH DISORDERS",
            "MILD",
            1,
            "SCREENING 1",
            -7,
            "2012-08-25",
            "",
            -13
          ],
          [
            114,
            "CDISCPILOT01",
            "MH",
            "01-701-1111",
            28,
            "",
            "VERBATIM_0702",
            "EATING DISORDER",
            "EATING DISORDER",
            "HLT_0538",
            "HLGT_0235",
            "HISTORICAL DIAGNOSIS",
            "PSYCHIATRIC DISORDERS",
            "",
            1,
            "SCREENING 1",
            -7,
            "2012-08-25",
            "2009",
            -13
          ],
          [
            115,
            "CDISCPILOT01",
            "MH",
            "01-701-1111",
            19,
            "",
            "VERBATIM_0740",
            "FOOT FRACTURE",
            "FOOT FRACTURE",
            "HLT_0768",
            "HLGT_0287",
            "HISTORICAL DIAGNOSIS",
            "INJURY, POISONING AND PROCEDURAL COMPLICATIONS",
            "",
            1,
            "SCREENING 1",
            -7,
            "2012-08-25",
            "1986",
            -13
          ],
          [
            116,
            "CDISCPILOT01",
            "MH",
            "01-701-1111",
            17,
            "",
            "VERBATIM_0267",
            "HEMORRHOIDS",
            "HAEMORRHOIDS",
            "HLT_0681",
            "HLGT_0485",
            "HISTORICAL DIAGNOSIS",
            "GASTROINTESTINAL DISORDERS",
            "",
            1,
            "SCREENING 1",
            -7,
            "2012-08-25",
            "1981",
            -13
          ],
          [
            117,
            "CDISCPILOT01",
            "MH",
            "01-701-1111",
            2,
            "E04",
            "VERBATIM_0699",
            "HIATAL HERNIA",
            "HIATUS HERNIA",
            "HLT_0159",
            "HLGT_0109",
            "SIGNIFICANT PRE-EXISTING CONDITION",
            "GASTROINTESTINAL DISORDERS",
            "MILD",
            1,
            "SCREENING 1",
            -7,
            "2012-08-25",
            "",
            -13
          ],
          [
            118,
            "CDISCPILOT01",
            "MH",
            "01-701-1111",
            12,
            "E01",
            "VERBATIM_1641",
            "HYPERTENSION",
            "HYPERTENSION",
            "HLT_0228",
            "HLGT_0476",
            "SIGNIFICANT PRE-EXISTING CONDITION",
            "VASCULAR DISORDERS",
            "MILD",
            1,
            "SCREENING 1",
            -7,
            "2012-08-25",
            "",
            -13
          ],
          [
            119,
            "CDISCPILOT01",
            "MH",
            "01-701-1111",
            9,
            "E05",
            "VERBATIM_1512",
            "HYPOTHYROIDISM",
            "HYPOTHYROIDISM",
            "HLT_0454",
            "HLGT_0558",
            "SIGNIFICANT PRE-EXISTING CONDITION",
            "ENDOCRINE DISORDERS",
            "MILD",
            1,
            "SCREENING 1",
            -7,
            "2012-08-25",
            "",
            -13
          ],
          [
            120,
            "CDISCPILOT01",
            "MH",
            "01-701-1111",
            26,
            "",
            "VERBATIM_1545",
            "INCONTINENCE",
            "INCONTINENCE",
            "HLT_0560",
            "HLGT_0503",
            "HISTORICAL DIAGNOSIS",
            "RENAL AND URINARY DISORDERS",
            "",
            1,
            "SCREENING 1",
            -7,
            "2012-08-25",
            "2006",
            -13
          ],
          [
            121,
            "CDISCPILOT01",
            "MH",
            "01-701-1111",
            6,
            "E06",
            "VERBATIM_1224",
            "LOCALIZED INFECTION",
            "LOCALISED INFECTION",
            "HLT_0435",
            "HLGT_0557",
            "SIGNIFICANT PRE-EXISTING CONDITION",
            "INFECTIONS AND INFESTATIONS",
            "MILD",
            1,
            "SCREENING 1",
            -7,
            "2012-08-25",
            "",
            -13
          ],
          [
            122,
            "CDISCPILOT01",
            "MH",
            "01-701-1111",
            20,
            "",
            "VERBATIM_1261",
            "KNEE FRACTURE",
            "LOWER LIMB FRACTURE",
            "HLT_0348",
            "HLGT_0435",
            "HISTORICAL DIAGNOSIS",
            "INJURY, POISONING AND PROCEDURAL COMPLICATIONS",
            "",
            1,
            "SCREENING 1",
            -7,
            "2012-08-25",
            "1986",
            -13
          ],
          [
            123,
            "CDISCPILOT01",
            "MH",
            "01-701-1111",
            30,
            "",
            "VERBATIM_0543",
            "DEGENERATION MACULAR",
            "MACULAR DEGENERATION",
            "HLT_0401",
            "HLGT_0370",
            "HISTORICAL DIAGNOSIS",
            "EYE DISORDERS",
            "",
            1,
            "SCREENING 1",
            -7,
            "2012-08-25",
            "2012",
            -13
          ],
          [
            124,
            "CDISCPILOT01",
            "MH",
            "01-701-1111",
            3,
            "E03",
            "VERBATIM_0835",
            "ANKLE EDEMA",
            "OEDEMA PERIPHERAL",
            "HLT_0661",
            "HLGT_0137",
            "SIGNIFICANT PRE-EXISTING CONDITION",
            "GENERAL DISORDERS AND ADMINISTRATION SITE CONDITIONS",
            "MILD",
            1,
            "SCREENING 1",
            -7,
            "2012-08-25",
            "",
            -13
          ],
          [
            125,
            "CDISCPILOT01",
            "MH",
            "01-701-1111",
            5,
            "E13",
            "VERBATIM_1201",
            "OSTEOPOROSIS",
            "OSTEOPOROSIS",
            "HLT_0381",
            "HLGT_0634",
            "SIGNIFICANT PRE-EXISTING CONDITION",
            "MUSCULOSKELETAL AND CONNECTIVE TISSUE DISORDERS",
            "MILD",
            1,
            "SCREENING 1",
            -7,
            "2012-08-25",
            "",
            -13
          ],
          [
            126,
            "CDISCPILOT01",
            "MH",
            "01-701-1111",
            16,
            "",
            "VERBATIM_0250",
            "RECTAL BLEEDING",
            "RECTAL HAEMORRHAGE",
            "HLT_0353",
            "HLGT_0755",
            "HISTORICAL DIAGNOSIS",
            "GASTROINTESTINAL DISORDERS",
            "",
            1,
            "SCREENING 1",
            -7,
            "2012-08-25",
            "1981",
            -13
          ],
          [
            127,
            "CDISCPILOT01",
            "MH",
            "01-701-1111",
            22,
            "",
            "VERBATIM_1407",
            "FRACTURED RIBS",
            "RIB FRACTURE",
            "HLT_0292",
            "HLGT_0583",
            "HISTORICAL DIAGNOSIS",
            "INJURY, POISONING AND PROCEDURAL COMPLICATIONS",
            "",
            1,
            "SCREENING 1",
            -7,
            "2012-08-25",
            "1986",
            -13
          ],
          [
            128,
            "CDISCPILOT01",
            "MH",
            "01-701-1111",
            13,
            "E09",
            "VERBATIM_1769",
            "SINUSITIS",
            "SINUSITIS",
            "HLT_0262",
            "HLGT_0249",
            "SIGNIFICANT PRE-EXISTING CONDITION",
            "INFECTIONS AND INFESTATIONS",
            "MILD",
            1,
            "SCREENING 1",
            -7,
            "2012-08-25",
            "",
            -13
          ],
          [
            129,
            "CDISCPILOT01",
            "MH",
            "01-701-1111",
            4,
            "E12",
            "VERBATIM_1065",
            "TINNITUS",
            "TINNITUS",
            "HLT_0570",
            "HLGT_0180",
            "SIGNIFICANT PRE-EXISTING CONDITION",
            "EAR AND LABYRINTH DISORDERS",
            "MILD",
            1,
            "SCREENING 1",
            -7,
            "2012-08-25",
            "",
            -13
          ],
          [
            130,
            "CDISCPILOT01",
            "MH",
            "01-701-1111",
            15,
            "",
            "VERBATIM_0526",
            "TUBERCULOSIS",
            "TUBERCULOSIS",
            "HLT_0344",
            "HLGT_0774",
            "HISTORICAL DIAGNOSIS",
            "INFECTIONS AND INFESTATIONS",
            "",
            1,
            "SCREENING 1",
            -7,
            "2012-08-25",
            "1952",
            -13
          ],
          [
            131,
            "CDISCPILOT01",
            "MH",
            "01-701-1111",
            21,
            "",
            "VERBATIM_1378",
            "ELBOW FRACTURE",
            "UPPER LIMB FRACTURE",
            "HLT_0472",
            "HLGT_0247",
            "HISTORICAL DIAGNOSIS",
            "INJURY, POISONING AND PROCEDURAL COMPLICATIONS",
            "",
            1,
            "SCREENING 1",
            -7,
            "2012-08-25",
            "1986",
            -13
          ],
          [
            132,
            "CDISCPILOT01",
            "MH",
            "01-701-1111",
            11,
            "E02",
            "VERBATIM_1589",
            "VARICOSE VEINS",
            "VARICOSE VEIN",
            "HLT_0372",
            "HLGT_0037",
            "SIGNIFICANT PRE-EXISTING CONDITION",
            "VASCULAR DISORDERS",
            "MILD",
            1,
            "SCREENING 1",
            -7,
            "2012-08-25",
            "",
            -13
          ],
          [
            133,
            "CDISCPILOT01",
            "MH",
            "01-701-1111",
            18,
            "",
            "VERBATIM_0063",
            "WRIST FRACTURE",
            "WRIST FRACTURE",
            "HLT_0537",
            "HLGT_0281",
            "HISTORICAL DIAGNOSIS",
            "INJURY, POISONING AND PROCEDURAL COMPLICATIONS",
            "",
            1,
            "SCREENING 1",
            -7,
            "2012-08-25",
            "1986",
            -13
          ],
          [
            134,
            "CDISCPILOT01",
            "MH",
            "01-701-1115",
            13,
            "",
            "ALZHEIMER'S DISEASE",
            "",
            "",
            "",
            "",
            "PRIMARY DIAGNOSIS",
            "",
            "",
            1,
            "SCREENING 1",
            -7,
            "2012-11-23",
            "2004-05-28",
            -7
          ],
          [
            135,
            "CDISCPILOT01",
            "MH",
            "01-701-1115",
            3,
            "E01",
            "VERBATIM_0443",
            "CONSTIPATION",
            "CONSTIPATION",
            "HLT_0402",
            "HLGT_0635",
            "SIGNIFICANT PRE-EXISTING CONDITION",
            "GASTROINTESTINAL DISORDERS",
            "MILD",
            1,
            "SCREENING 1",
            -7,
            "2012-11-23",
            "",
            -7
          ],
          [
            136,
            "CDISCPILOT01",
            "MH",
            "01-701-1115",
            4,
            "E05",
            "VERBATIM_0773",
            "DENTURE WEARER",
            "DENTURE WEARER",
            "HLT_0246",
            "HLGT_0763",
            "SIGNIFICANT PRE-EXISTING CONDITION",
            "SOCIAL CIRCUMSTANCES",
            "MILD",
            1,
            "SCREENING 1",
            -7,
            "2012-11-23",
            "",
            -7
          ],
          [
            137,
            "CDISCPILOT01",
            "MH",
            "01-701-1115",
            15,
            "",
            "VERBATIM_1533",
            "DIZZINESS",
            "DIZZINESS",
            "HLT_0619",
            "HLGT_0751",
            "HISTORICAL DIAGNOSIS",
            "NERVOUS SYSTEM DISORDERS",
            "",
            1,
            "SCREENING 1",
            -7,
            "2012-11-23",
            "2011",
            -7
          ],
          [
            138,
            "CDISCPILOT01",
            "MH",
            "01-701-1115",
            14,
            "",
            "VERBATIM_1509",
            "SHORTNESS OF BREATH",
            "DYSPNOEA",
            "HLT_0296",
            "HLGT_0255",
            "HISTORICAL DIAGNOSIS",
            "RESPIRATORY, THORACIC AND MEDIASTINAL DISORDERS",
            "",
            1,
            "SCREENING 1",
            -7,
            "2012-11-23",
            "2011",
            -7
          ],
          [
            139,
            "CDISCPILOT01",
            "MH",
            "01-701-1115",
            11,
            "",
            "VERBATIM_0714",
            "SHINGLES",
            "HERPES ZOSTER",
            "HLT_0460",
            "HLGT_0239",
            "HISTORICAL DIAGNOSIS",
            "INFECTIONS AND INFESTATIONS",
            "",
            1,
            "SCREENING 1",
            -7,
            "2012-11-23",
            "1986",
            -7
          ],
          [
            140,
            "CDISCPILOT01",
            "MH",
            "01-701-1115",
            8,
            "E04",
            "VERBATIM_1749",
            "HYPEROPIA",
            "HYPERMETROPIA",
            "HLT_0546",
            "HLGT_0646",
            "SIGNIFICANT PRE-EXISTING CONDITION",
            "EYE DISORDERS",
            "MILD",
            1,
            "SCREENING 1",
            -7,
            "2012-11-23",
            "",
            -7
          ],
          [
            141,
            "CDISCPILOT01",
            "MH",
            "01-701-1115",
            5,
            "E07",
            "VERBATIM_1179",
            "URINARY URGENCY",
            "MICTURITION URGENCY",
            "HLT_0294",
            "HLGT_0483",
            "SIGNIFICANT PRE-EXISTING CONDITION",
            "RENAL AND URINARY DISORDERS",
            "MILD",
            1,
            "SCREENING 1",
            -7,
            "2012-11-23",
            "",
            -7
          ],
          [
            142,
            "CDISCPILOT01",
            "MH",
            "01-701-1115",
            12,
            "",
            "VERBATIM_0739",
            "KIDNEY STONES",
            "NEPHROLITHIASIS",
            "HLT_0439",
            "HLGT_0546",
            "HISTORICAL DIAGNOSIS",
            "RENAL AND URINARY DISORDERS",
            "",
            1,
            "SCREENING 1",
            -7,
            "2012-11-23",
            "1998",
            -7
          ],
          [
            143,
            "CDISCPILOT01",
            "MH",
            "01-701-1115",
            1,
            "E06",
            "VERBATIM_0014",
            "NOCTURIA",
            "NOCTURIA",
            "HLT_0509",
            "HLGT_0605",
            "SIGNIFICANT PRE-EXISTING CONDITION",
            "RENAL AND URINARY DISORDERS",
            "MILD",
            1,
            "SCREENING 1",
            -7,
            "2012-11-23",
            "",
            -7
          ],
          [
            144,
            "CDISCPILOT01",
            "MH",
            "01-701-1115",
            10,
            "",
            "VERBATIM_0470",
            "PELVIC FRACTURE",
            "PELVIC FRACTURE",
            "HLT_0017",
            "HLGT_0237",
            "HISTORICAL DIAGNOSIS",
            "INJURY, POISONING AND PROCEDURAL COMPLICATIONS",
            "",
            1,
            "SCREENING 1",
            -7,
            "2012-11-23",
            "1983",
            -7
          ],
          [
            145,
            "CDISCPILOT01",
            "MH",
            "01-701-1115",
            2,
            "E08",
            "VERBATIM_0261",
            "POLYARTHRITIS",
            "POLYARTHRITIS",
            "HLT_0134",
            "HLGT_0167",
            "SIGNIFICANT PRE-EXISTING CONDITION",
            "MUSCULOSKELETAL AND CONNECTIVE TISSUE DISORDERS",
            "MILD",
            1,
            "SCREENING 1",
            -7,
            "2012-11-23",
            "",
            -7
          ],
          [
            146,
            "CDISCPILOT01",
            "MH",
            "01-701-1115",
            7,
            "E03",
            "VERBATIM_1546",
            "POLYARTHRITIS",
            "POLYARTHRITIS",
            "HLT_0134",
            "HLGT_0167",
            "SIGNIFICANT PRE-EXISTING CONDITION",
            "MUSCULOSKELETAL AND CONNECTIVE TISSUE DISORDERS",
            "MILD",
            1,
            "SCREENING 1",
            -7,
            "2012-11-23",
            "",
            -7
          ],
          [
            147,
            "CDISCPILOT01",
            "MH",
            "01-701-1115",
            6,
            "E02",
            "VERBATIM_1350",
            "PROSTATITIS",
            "PROSTATITIS",
            "HLT_0749",
            "HLGT_0104",
            "SIGNIFICANT PRE-EXISTING CONDITION",
            "REPRODUCTIVE SYSTEM AND BREAST DISORDERS",
            "MILD",
            1,
            "SCREENING 1",
            -7,
            "2012-11-23",
            "",
            -7
          ],
          [
            148,
            "CDISCPILOT01",
            "MH",
            "01-701-1115",
            9,
            "",
            "VERBATIM_1716",
            "TONSILLECTOMY",
            "TONSILLECTOMY",
            "HLT_0202",
            "HLGT_0199",
            "HISTORICAL DIAGNOSIS",
            "SURGICAL AND MEDICAL PROCEDURES",
            "",
            1,
            "SCREENING 1",
            -7,
            "2012-11-23",
            "1934",
            -7
          ],
          [
            149,
            "CDISCPILOT01",
            "MH",
            "01-701-1118",
            8,
            "",
            "ALZHEIMER'S DISEASE",
            "",
            "",
            "",
            "",
            "PRIMARY DIAGNOSIS",
            "",
            "",
            1,
            "SCREENING 1",
            -7,
            "2014-02-27",
            "2010-06-24",
            -13
          ],
          [
            150,
            "CDISCPILOT01",
            "MH",
            "01-701-1118",
            3,
            "E01",
            "VERBATIM_0800",
            "INDIGESTION",
            "DYSPEPSIA",
            "HLT_0244",
            "HLGT_0716",
            "SIGNIFICANT PRE-EXISTING CONDITION",
            "GASTROINTESTINAL DISORDERS",
            "MILD",
            1,
            "SCREENING 1",
            -7,
            "2014-02-27",
            "",
            -13
          ],
          [
            151,
            "CDISCPILOT01",
            "MH",
            "01-701-1118",
            1,
            "E02",
            "VERBATIM_0267",
            "HEMORRHOIDS",
            "HAEMORRHOIDS",
            "HLT_0681",
            "HLGT_0485",
            "SIGNIFICANT PRE-EXISTING CONDITION",
            "GASTROINTESTINAL DISORDERS",
            "MILD",
            1,
            "SCREENING 1",
            -7,
            "2014-02-27",
            "",
            -13
          ],
          [
            152,
            "CDISCPILOT01",
            "MH",
            "01-701-1118",
            2,
            "E03",
            "VERBATIM_0301",
            "HEADACHE",
            "HEADACHE",
            "HLT_0064",
            "HLGT_0344",
            "SIGNIFICANT PRE-EXISTING CONDITION",
            "NERVOUS SYSTEM DISORDERS",
            "MODERATE",
            1,
            "SCREENING 1",
            -7,
            "2014-02-27",
            "",
            -13
          ],
          [
            153,
            "CDISCPILOT01",
            "MH",
            "01-701-1118",
            4,
            "E05",
            "VERBATIM_1683",
            "HYPEROPIA",
            "HYPERMETROPIA",
            "HLT_0546",
            "HLGT_0646",
            "SIGNIFICANT PRE-EXISTING CONDITION",
            "EYE DISORDERS",
            "MILD",
            1,
            "SCREENING 1",
            -7,
            "2014-02-27",
            "",
            -13
          ],
          [
            154,
            "CDISCPILOT01",
            "MH",
            "01-701-1118",
            6,
            "",
            "VERBATIM_1514",
            "PNEUMOTHORAX",
            "PNEUMOTHORAX",
            "HLT_0580",
            "HLGT_0057",
            "HISTORICAL DIAGNOSIS",
            "RESPIRATORY, THORACIC AND MEDIASTINAL DISORDERS",
            "",
            1,
            "SCREENING 1",
            -7,
            "2014-02-27",
            "1988",
            -13
          ],
          [
            155,
            "CDISCPILOT01",
            "MH",
            "01-701-1118",
            5,
            "E04",
            "VERBATIM_1769",
            "SINUSITIS",
            "SINUSITIS",
            "HLT_0262",
            "HLGT_0249",
            "SIGNIFICANT PRE-EXISTING CONDITION",
            "INFECTIONS AND INFESTATIONS",
            "MILD",
            1,
            "SCREENING 1",
            -7,
            "2014-02-27",
            "",
            -13
          ],
          [
            156,
            "CDISCPILOT01",
            "MH",
            "01-701-1118",
            7,
            "",
            "VERBATIM_1371",
            "WRIST FRACTURE",
            "WRIST FRACTURE",
            "HLT_0537",
            "HLGT_0281",
            "HISTORICAL DIAGNOSIS",
            "INJURY, POISONING AND PROCEDURAL COMPLICATIONS",
            "",
            1,
            "SCREENING 1",
            -7,
            "2014-02-27",
            "1991",
            -13
          ],
          [
            157,
            "CDISCPILOT01",
            "MH",
            "01-701-1130",
            13,
            "",
            "ALZHEIMER'S DISEASE",
            "",
            "",
            "",
            "",
            "PRIMARY DIAGNOSIS",
            "",
            "",
            1,
            "SCREENING 1",
            -7,
            "2014-02-09",
            "2010-05-22",
            -6
          ],
          [
            158,
            "CDISCPILOT01",
            "MH",
            "01-701-1130",
            5,
            "E05",
            "VERBATIM_1751",
            "ASTIGMATISM",
            "ASTIGMATISM",
            "HLT_0494",
            "HLGT_0369",
            "SIGNIFICANT PRE-EXISTING CONDITION",
            "EYE DISORDERS",
            "MILD",
            1,
            "SCREENING 1",
            -7,
            "2014-02-09",
            "",
            -6
          ],
          [
            159,
            "CDISCPILOT01",
            "MH",
            "01-701-1130",
            1,
            "E03",
            "VERBATIM_0025",
            "HEARING LOSS UNILATERAL",
            "DEAFNESS UNILATERAL",
            "HLT_0521",
            "HLGT_0683",
            "SIGNIFICANT PRE-EXISTING CONDITION",
            "EAR AND LABYRINTH DISORDERS",
            "MILD",
            1,
            "SCREENING 1",
            -7,
            "2014-02-09",
            "",
            -6
          ],
          [
            160,
            "CDISCPILOT01",
            "MH",
            "01-701-1130",
            2,
            "E04",
            "VERBATIM_0773",
            "DENTURE WEARER",
            "DENTURE WEARER",
            "HLT_0246",
            "HLGT_0763",
            "SIGNIFICANT PRE-EXISTING CONDITION",
            "SOCIAL CIRCUMSTANCES",
            "MILD",
            1,
            "SCREENING 1",
            -7,
            "2014-02-09",
            "",
            -6
          ],
          [
            161,
            "CDISCPILOT01",
            "MH",
            "01-701-1130",
            4,
            "E02",
            "VERBATIM_1454",
            "DRY SKIN",
            "DRY SKIN",
            "HLT_0028",
            "HLGT_0096",
            "SIGNIFICANT PRE-EXISTING CONDITION",
            "SKIN AND SUBCUTANEOUS TISSUE DISORDERS",
            "MILD",
            1,
            "SCREENING 1",
            -7,
            "2014-02-09",
            "",
            -6
          ],
          [
            162,
            "CDISCPILOT01",
            "MH",
            "01-701-1130",
            7,
            "",
            "VERBATIM_0329",
            "FEMUR FRACTURE",
            "FEMUR FRACTURE",
            "HLT_0349",
            "HLGT_0542",
            "HISTORICAL DIAGNOSIS",
            "INJURY, POISONING AND PROCEDURAL COMPLICATIONS",
            "",
            1,
            "SCREENING 1",
            -7,
            "2014-02-09",
            "1977",
            -6
          ],
          [
            163,
            "CDISCPILOT01",
            "MH",
            "01-701-1130",
            9,
            "",
            "VERBATIM_0267",
            "HEMORRHOIDS",
            "HAEMORRHOIDS",
            "HLT_0681",
            "HLGT_0485",
            "HISTORICAL DIAGNOSIS",
            "GASTROINTESTINAL DISORDERS",
            "",
            1,
            "SCREENING 1",
            -7,
            "2014-02-09",
            "1987",
            -6
          ],
          [
            164,
            "CDISCPILOT01",
            "MH",
            "01-701-1130",
            14,
            "",
            "VERBATIM_0448",
            "OTITIS EXTERNA",
            "OTITIS EXTERNA",
            "HLT_0673",
            "HLGT_0404",
            "HISTORICAL DIAGNOSIS",
            "INFECTIONS AND INFESTATIONS",
            "",
            1,
            "SCREENING 1",
            -7,
            "2014-02-09",
            "2012-10",
            -6
          ],
          [
            165,
            "CDISCPILOT01",
            "MH",
            "01-701-1130",
            3,
            "E01",
            "VERBATIM_1446",
            "TINGLING",
            "PARAESTHESIA",
            "HLT_0481",
            "HLGT_0534",
            "SIGNIFICANT PRE-EXISTING CONDITION",
            "NERVOUS SYSTEM DISORDERS",
            "MILD",
            1,
            "SCREENING 1",
            -7,
            "2014-02-09",
            "",
            -6
          ],
          [
            166,
            "CDISCPILOT01",
            "MH",
            "01-701-1130",
            8,
            "",
            "VERBATIM_0919",
            "PNEUMONIA",
            "PNEUMONIA",
            "HLT_0251",
            "HLGT_0671",
            "HISTORICAL DIAGNOSIS",
            "INFECTIONS AND INFESTATIONS",
            "",
            1,
            "SCREENING 1",
            -7,
            "2014-02-09",
            "1984",
            -6
          ],
          [
            167,
            "CDISCPILOT01",
            "MH",
            "01-701-1130",
            10,
            "",
            "VERBATIM_0919",
            "PNEUMONIA",
            "PNEUMONIA",
            "HLT_0251",
            "HLGT_0671",
            "HISTORICAL DIAGNOSIS",
            "INFECTIONS AND INFESTATIONS",
            "",
            1,
            "SCREENING 1",
            -7,
            "2014-02-09",
            "1989",
            -6
          ],
          [
            168,
            "CDISCPILOT01",
            "MH",
            "01-701-1130",
            12,
            "",
            "VERBATIM_0154",
            "PROSTATE CANCER",
            "PROSTATE CANCER",
            "HLT_0412",
            "HLGT_0190",
            "HISTORICAL DIAGNOSIS",
            "NEOPLASMS BENIGN, MALIGNANT AND UNSPECIFIED (INCL CYSTS AND POLYPS)",
            "",
            1,
            "SCREENING 1",
            -7,
            "2014-02-09",
            "2000",
            -6
          ],
          [
            169,
            "CDISCPILOT01",
            "MH",
            "01-701-1130",
            11,
            "",
            "VERBATIM_0055",
            "PROSTATECTOMY",
            "PROSTATECTOMY",
            "HLT_0532",
            "HLGT_0559",
            "HISTORICAL DIAGNOSIS",
            "SURGICAL AND MEDICAL PROCEDURES",
            "",
            1,
            "SCREENING 1",
            -7,
            "2014-02-09",
            "2000",
            -6
          ],
          [
            170,
            "CDISCPILOT01",
            "MH",
            "01-701-1130",
            15,
            "",
            "VERBATIM_0463",
            "LACERATION OF ARM",
            "SKIN LACERATION",
            "HLT_0075",
            "HLGT_0118",
            "HISTORICAL DIAGNOSIS",
            "INJURY, POISONING AND PROCEDURAL COMPLICATIONS",
            "",
            1,
            "SCREENING 1",
            -7,
            "2014-02-09",
            "2014-01-15",
            -6
          ],
          [
            171,
            "CDISCPILOT01",
            "MH",
            "01-701-1130",
            6,
            "",
            "VERBATIM_1716",
            "TONSILLECTOMY",
            "TONSILLECTOMY",
            "HLT_0202",
            "HLGT_0199",
            "HISTORICAL DIAGNOSIS",
            "SURGICAL AND MEDICAL PROCEDURES",
            "",
            1,
            "SCREENING 1",
            -7,
            "2014-02-09",
            "1939",
            -6
          ],
          [
            172,
            "CDISCPILOT01",
            "MH",
            "01-701-1133",
            11,
            "",
            "ALZHEIMER'S DISEASE",
            "",
            "",
            "",
            "",
            "PRIMARY DIAGNOSIS",
            "",
            "",
            1,
            "SCREENING 1",
            -7,
            "2012-10-23",
            "2010-03-11",
            -5
          ],
          [
            173,
            "CDISCPILOT01",
            "MH",
            "01-701-1133",
            7,
            "",
            "VERBATIM_0517",
            "CHEST PAIN",
            "CHEST PAIN",
            "HLT_0717",
            "HLGT_0195",
            "HISTORICAL DIAGNOSIS",
            "GENERAL DISORDERS AND ADMINISTRATION SITE CONDITIONS",
            "",
            1,
            "SCREENING 1",
            -7,
            "2012-10-23",
            "1986",
            -5
          ],
          [
            174,
            "CDISCPILOT01",
            "MH",
            "01-701-1133",
            3,
            "E03",
            "VERBATIM_1796",
            "DENTURE WEARER",
            "DENTURE WEARER",
            "HLT_0246",
            "HLGT_0763",
            "SIGNIFICANT PRE-EXISTING CONDITION",
            "SOCIAL CIRCUMSTANCES",
            "MILD",
            1,
            "SCREENING 1",
            -7,
            "2012-10-23",
            "",
            -5
          ],
          [
            175,
            "CDISCPILOT01",
            "MH",
            "01-701-1133",
            8,
            "",
            "VERBATIM_1023",
            "DIVERTICULOSIS",
            "DIVERTICULUM",
            "HLT_0069",
            "HLGT_0141",
            "HISTORICAL DIAGNOSIS",
            "GASTROINTESTINAL DISORDERS",
            "",
            1,
            "SCREENING 1",
            -7,
            "2012-10-23",
            "2000",
            -5
          ],
          [
            176,
            "CDISCPILOT01",
            "MH",
            "01-701-1133",
            9,
            "",
            "VERBATIM_0267",
            "HEMORRHOIDS",
            "HAEMORRHOIDS",
            "HLT_0681",
            "HLGT_0485",
            "HISTORICAL DIAGNOSIS",
            "GASTROINTESTINAL DISORDERS",
            "",
            1,
            "SCREENING 1",
            -7,
            "2012-10-23",
            "2003",
            -5
          ],
          [
            177,
            "CDISCPILOT01",
            "MH",
            "01-701-1133",
            2,
            "E02",
            "VERBATIM_1683",
            "HYPEROPIA",
            "HYPERMETROPIA",
            "HLT_0546",
            "HLGT_0646",
            "SIGNIFICANT PRE-EXISTING CONDITION",
            "EYE DISORDERS",
            "MILD",
            1,
            "SCREENING 1",
            -7,
            "2012-10-23",
            "",
            -5
          ],
          [
            178,
            "CDISCPILOT01",
            "MH",
            "01-701-1133",
            6,
            "",
            "VERBATIM_0342",
            "HYPERTENSION",
            "HYPERTENSION",
            "HLT_0228",
            "HLGT_0476",
            "HISTORICAL DIAGNOSIS",
            "VASCULAR DISORDERS",
            "",
            1,
            "SCREENING 1",
            -7,
            "2012-10-23",
            "1986",
            -5
          ],
          [
            179,
            "CDISCPILOT01",
            "MH",
            "01-701-1133",
            10,
            "",
            "VERBATIM_0009",
            "KNEE TOTAL REPLACEMENT",
            "KNEE ARTHROPLASTY",
            "HLT_0710",
            "HLGT_0078",
            "HISTORICAL DIAGNOSIS",
            "SURGICAL AND MEDICAL PROCEDURES",
            "",
            1,
            "SCREENING 1",
            -7,
            "2012-10-23",
            "2009-12",
            -5
          ],
          [
            180,
            "CDISCPILOT01",
            "MH",
            "01-701-1133",
            1,
            "E01",
            "VERBATIM_1121",
            "POLYARTHRITIS",
            "POLYARTHRITIS",
            "HLT_0134",
            "HLGT_0167",
            "SIGNIFICANT PRE-EXISTING CONDITION",
            "MUSCULOSKELETAL AND CONNECTIVE TISSUE DISORDERS",
            "MILD",
            1,
            "SCREENING 1",
            -7,
            "2012-10-23",
            "",
            -5
          ],
          [
            181,
            "CDISCPILOT01",
            "MH",
            "01-701-1133",
            4,
            "",
            "VERBATIM_1716",
            "TONSILLECTOMY",
            "TONSILLECTOMY",
            "HLT_0202",
            "HLGT_0199",
            "HISTORICAL DIAGNOSIS",
            "SURGICAL AND MEDICAL PROCEDURES",
            "",
            1,
            "SCREENING 1",
            -7,
            "2012-10-23",
            "1939",
            -5
          ],
          [
            182,
            "CDISCPILOT01",
            "MH",
            "01-701-1133",
            5,
            "",
            "VERBATIM_0293",
            "WEIGHT LOSS",
            "WEIGHT DECREASED",
            "HLT_0158",
            "HLGT_0778",
            "HISTORICAL DIAGNOSIS",
            "INVESTIGATIONS",
            "",
            1,
            "SCREENING 1",
            -7,
            "2012-10-23",
            "1966",
            -5
          ],
          [
            183,
            "CDISCPILOT01",
            "MH",
            "01-701-1146",
            11,
            "",
            "ALZHEIMER'S DISEASE",
            "",
            "",
            "",
            "",
            "PRIMARY DIAGNOSIS",
            "",
            "",
            1,
            "SCREENING 1",
            -7,
            "2013-05-07",
            "2009-11-17",
            -13
          ],
          [
            184,
            "CDISCPILOT01",
            "MH",
            "01-701-1146",
            15,
            "",
            "VERBATIM_0821",
            "ABDOMINAL DISCOMFORT",
            "ABDOMINAL DISCOMFORT",
            "HLT_0012",
            "HLGT_0332",
            "HISTORICAL DIAGNOSIS",
            "GASTROINTESTINAL DISORDERS",
            "",
            1,
            "SCREENING 1",
            -7,
            "2013-05-07",
            "2012-07-06",
            -13
          ],
          [
            185,
            "CDISCPILOT01",
            "MH",
            "01-701-1146",
            7,
            "E03",
            "VERBATIM_1441",
            "KNEE PAIN",
            "ARTHRALGIA",
            "HLT_0375",
            "HLGT_0610",
            "SIGNIFICANT PRE-EXISTING CONDITION",
            "MUSCULOSKELETAL AND CONNECTIVE TISSUE DISORDERS",
            "MILD",
            1,
            "SCREENING 1",
            -7,
            "2013-05-07",
            "",
            -13
          ],
          [
            186,
            "CDISCPILOT01",
            "MH",
            "01-701-1146",
            10,
            "",
            "VERBATIM_0815",
            "BLADDER PROLAPSE",
            "BLADDER PROLAPSE",
            "HLT_0502",
            "HLGT_0048",
            "HISTORICAL DIAGNOSIS",
            "RENAL AND URINARY DISORDERS",
            "",
            1,
            "SCREENING 1",
            -7,
            "2013-05-07",
            "2006",
            -13
          ],
          [
            187,
            "CDISCPILOT01",
            "MH",
            "01-701-1146",
            13,
            "",
            "VERBATIM_0815",
            "BLADDER PROLAPSE",
            "BLADDER PROLAPSE",
            "HLT_0502",
            "HLGT_0048",
            "HISTORICAL DIAGNOSIS",
            "RENAL AND URINARY DISORDERS",
            "",
            1,
            "SCREENING 1",
            -7,
            "2013-05-07",
            "2012",
            -13
          ],
          [
            188,
            "CDISCPILOT01",
            "MH",
            "01-701-1146",
            5,
            "E08",
            "VERBATIM_1223",
            "HEART MURMUR",
            "CARDIAC MURMUR",
            "HLT_0085",
            "HLGT_0133",
            "SIGNIFICANT PRE-EXISTING CONDITION",
            "INVESTIGATIONS",
            "MILD",
            1,
            "SCREENING 1",
            -7,
            "2013-05-07",
            "",
            -13
          ],
          [
            189,
            "CDISCPILOT01",
            "MH",
            "01-701-1146",
            14,
            "",
            "VERBATIM_0517",
            "CHEST PAIN",
            "CHEST PAIN",
            "HLT_0717",
            "HLGT_0195",
            "HISTORICAL DIAGNOSIS",
            "GENERAL DISORDERS AND ADMINISTRATION SITE CONDITIONS",
            "",
            1,
            "SCREENING 1",
            -7,
            "2013-05-07",
            "2012-03-27",
            -13
          ],
          [
            190,
            "CDISCPILOT01",
            "MH",
            "01-701-1146",
            3,
            "E01",
            "VERBATIM_0443",
            "CONSTIPATION",
            "CONSTIPATION",
            "HLT_0402",
            "HLGT_0635",
            "SIGNIFICANT PRE-EXISTING CONDITION",
            "GASTROINTESTINAL DISORDERS",
            "MILD",
            1,
            "SCREENING 1",
            -7,
            "2013-05-07",
            "",
            -13
          ],
          [
            191,
            "CDISCPILOT01",
            "MH",
            "01-701-1146",
            17,
            "",
            "VERBATIM_0361",
            "BLADDER INFECTION",
            "CYSTITIS",
            "HLT_0739",
            "HLGT_0129",
            "HISTORICAL DIAGNOSIS",
            "INFECTIONS AND INFESTATIONS",
            "",
            1,
            "SCREENING 1",
            -7,
            "2013-05-07",
            "2012-10-27",
            -13
          ],
          [
            192,
            "CDISCPILOT01",
            "MH",
            "01-701-1146",
            2,
            "E05",
            "VERBATIM_0391",
            "HEARING LOSS",
            "DEAFNESS",
            "HLT_0234",
            "HLGT_0025",
            "SIGNIFICANT PRE-EXISTING CONDITION",
            "EAR AND LABYRINTH DISORDERS",
            "MILD",
            1,
            "SCREENING 1",
            -7,
            "2013-05-07",
            "",
            -13
          ],
          [
            193,
            "CDISCPILOT01",
            "MH",
            "01-701-1146",
            6,
            "E06",
            "VERBATIM_1376",
            "DEPRESSION",
            "DEPRESSION",
            "HLT_0167",
            "HLGT_0582",
            "SIGNIFICANT PRE-EXISTING CONDITION",
            "PSYCHIATRIC DISORDERS",
            "MILD",
            1,
            "SCREENING 1",
            -7,
            "2013-05-07",
            "",
            -13
          ],
          [
            194,
            "CDISCPILOT01",
            "MH",
            "01-701-1146",
            4,
            "E07",
            "VERBATIM_1126",
            "DIARRHEA",
            "DIARRHOEA",
            "HLT_0148",
            "HLGT_0588",
            "SIGNIFICANT PRE-EXISTING CONDITION",
            "GASTROINTESTINAL DISORDERS",
            "MILD",
            1,
            "SCREENING 1",
            -7,
            "2013-05-07",
            "",
            -13
          ],
          [
            195,
            "CDISCPILOT01",
            "MH",
            "01-701-1146",
            16,
            "",
            "VERBATIM_1066",
            "ROOT CANAL PROCEDURE",
            "ENDODONTIC PROCEDURE",
            "HLT_0153",
            "HLGT_0539",
            "HISTORICAL DIAGNOSIS",
            "SURGICAL AND MEDICAL PROCEDURES",
            "",
            1,
            "SCREENING 1",
            -7,
            "2013-05-07",
            "2012-09-12",
            -13
          ],
          [
            196,
            "CDISCPILOT01",
            "MH",
            "01-701-1146",
            12,
            "",
            "VERBATIM_1117",
            "ESOPHAGEAL SPASM",
            "OESOPHAGEAL SPASM",
            "HLT_0112",
            "HLGT_0697",
            "HISTORICAL DIAGNOSIS",
            "GASTROINTESTINAL DISORDERS",
            "",
            1,
            "SCREENING 1",
            -7,
            "2013-05-07",
            "2011",
            -13
          ],
          [
            197,
            "CDISCPILOT01",
            "MH",
            "01-701-1146",
            1,
            "E02",
            "VERBATIM_0325",
            "POLYARTHRITIS",
            "POLYARTHRITIS",
            "HLT_0134",
            "HLGT_0167",
            "SIGNIFICANT PRE-EXISTING CONDITION",
            "MUSCULOSKELETAL AND CONNECTIVE TISSUE DISORDERS",
            "MILD",
            1,
            "SCREENING 1",
            -7,
            "2013-05-07",
            "",
            -13
          ],
          [
            198,
            "CDISCPILOT01",
            "MH",
            "01-701-1146",
            8,
            "E04",
            "VERBATIM_1769",
            "SINUSITIS",
            "SINUSITIS",
            "HLT_0262",
            "HLGT_0249",
            "SIGNIFICANT PRE-EXISTING CONDITION",
            "INFECTIONS AND INFESTATIONS",
            "MILD",
            1,
            "SCREENING 1",
            -7,
            "2013-05-07",
            "",
            -13
          ],
          [
            199,
            "CDISCPILOT01",
            "MH",
            "01-701-1146",
            9,
            "",
            "VERBATIM_1716",
            "TONSILLECTOMY",
            "TONSILLECTOMY",
            "HLT_0202",
            "HLGT_0199",
            "HISTORICAL DIAGNOSIS",
            "SURGICAL AND MEDICAL PROCEDURES",
            "",
            1,
            "SCREENING 1",
            -7,
            "2013-05-07",
            "1942",
            -13
          ],
          [
            200,
            "CDISCPILOT01",
            "MH",
            "01-701-1148",
            29,
            "",
            "ALZHEIMER'S DISEASE",
            "",
            "",
            "",
            "",
            "PRIMARY DIAGNOSIS",
            "",
            "",
            1,
            "SCREENING 1",
            -7,
            "2013-08-14",
            "2010-12-12",
            -9
          ],
          [
            201,
            "CDISCPILOT01",
            "MH",
            "01-701-1148",
            30,
            "",
            "VERBATIM_1160",
            "ACTINIC KERATOSIS",
            "ACTINIC KERATOSIS",
            "HLT_0609",
            "HLGT_0490",
            "HISTORICAL DIAGNOSIS",
            "SKIN AND SUBCUTANEOUS TISSUE DISORDERS",
            "",
            1,
            "SCREENING 1",
            -7,
            "2013-08-14",
            "2011",
            -9
          ],
          [
            202,
            "CDISCPILOT01",
            "MH",
            "01-701-1148",
            23,
            "",
            "VERBATIM_0598",
            "ANAL FISTULA",
            "ANAL FISTULA",
            "HLT_0653",
            "HLGT_0268",
            "HISTORICAL DIAGNOSIS",
            "GASTROINTESTINAL DISORDERS",
            "",
            1,
            "SCREENING 1",
            -7,
            "2013-08-14",
            "1989",
            -9
          ],
          [
            203,
            "CDISCPILOT01",
            "MH",
            "01-701-1148",
            27,
            "",
            "VERBATIM_0598",
            "ANAL FISTULA",
            "ANAL FISTULA",
            "HLT_0653",
            "HLGT_0268",
            "HISTORICAL DIAGNOSIS",
            "GASTROINTESTINAL DISORDERS",
            "",
            1,
            "SCREENING 1",
            -7,
            "2013-08-14",
            "2007",
            -9
          ],
          [
            204,
            "CDISCPILOT01",
            "MH",
            "01-701-1148",
            22,
            "",
            "VERBATIM_0146",
            "ANKLE FRACTURE",
            "ANKLE FRACTURE",
            "HLT_0208",
            "HLGT_0252",
            "HISTORICAL DIAGNOSIS",
            "INJURY, POISONING AND PROCEDURAL COMPLICATIONS",
            "",
            1,
            "SCREENING 1",
            -7,
            "2013-08-14",
            "1985",
            -9
          ],
          [
            205,
            "CDISCPILOT01",
            "MH",
            "01-701-1148",
            20,
            "E18",
            "VERBATIM_1751",
            "ASTIGMATISM",
            "ASTIGMATISM",
            "HLT_0494",
            "HLGT_0369",
            "SIGNIFICANT PRE-EXISTING CONDITION",
            "EYE DISORDERS",
            "MILD",
            1,
            "SCREENING 1",
            -7,
            "2013-08-14",
            "",
            -9
          ],
          [
            206,
            "CDISCPILOT01",
            "MH",
            "01-701-1148",
            19,
            "E10",
            "VERBATIM_1583",
            "BACK PAIN",
            "BACK PAIN",
            "HLT_0115",
            "HLGT_0508",
            "SIGNIFICANT PRE-EXISTING CONDITION",
            "MUSCULOSKELETAL AND CONNECTIVE TISSUE DISORDERS",
            "MILD",
            1,
            "SCREENING 1",
            -7,
            "2013-08-14",
            "",
            -9
          ],
          [
            207,
            "CDISCPILOT01",
            "MH",
            "01-701-1148",
            24,
            "",
            "VERBATIM_0305",
            "BREAST LUMP REMOVAL",
            "BREAST LUMP REMOVAL",
            "HLT_0100",
            "HLGT_0742",
            "HISTORICAL DIAGNOSIS",
            "SURGICAL AND MEDICAL PROCEDURES",
            "",
            1,
            "SCREENING 1",
            -7,
            "2013-08-14",
            "1991",
            -9
          ],
          [
            208,
            "CDISCPILOT01",
            "MH",
            "01-701-1148",
            11,
            "E14",
            "VERBATIM_0978",
            "HEARING LOSS BILATERAL",
            "DEAFNESS BILATERAL",
            "HLT_0567",
            "HLGT_0426",
            "SIGNIFICANT PRE-EXISTING CONDITION",
            "EAR AND LABYRINTH DISORDERS",
            "MILD",
            1,
            "SCREENING 1",
            -7,
            "2013-08-14",
            "",
            -9
          ],
          [
            209,
            "CDISCPILOT01",
            "MH",
            "01-701-1148",
            8,
            "E26",
            "VERBATIM_0591",
            "DEPRESSED MOOD",
            "DEPRESSED MOOD",
            "HLT_0784",
            "HLGT_0122",
            "SIGNIFICANT PRE-EXISTING CONDITION",
            "PSYCHIATRIC DISORDERS",
            "MILD",
            1,
            "SCREENING 1",
            -7,
            "2013-08-14",
            "",
            -9
          ],
          [
            210,
            "CDISCPILOT01",
            "MH",
            "01-701-1148",
            12,
            "E19",
            "VERBATIM_0982",
            "FELT FAINT",
            "DIZZINESS",
            "HLT_0619",
            "HLGT_0751",
            "SIGNIFICANT PRE-EXISTING CONDITION",
            "NERVOUS SYSTEM DISORDERS",
            "MILD",
            1,
            "SCREENING 1",
            -7,
            "2013-08-14",
            "",
            -9
          ],
          [
            211,
            "CDISCPILOT01",
            "MH",
            "01-701-1148",
            17,
            "E08",
            "VERBATIM_1533",
            "DIZZINESS",
            "DIZZINESS",
            "HLT_0619",
            "HLGT_0751",
            "SIGNIFICANT PRE-EXISTING CONDITION",
            "NERVOUS SYSTEM DISORDERS",
            "MILD",
            1,
            "SCREENING 1",
            -7,
            "2013-08-14",
            "",
            -9
          ],
          [
            212,
            "CDISCPILOT01",
            "MH",
            "01-701-1148",
            10,
            "E03",
            "VERBATIM_0800",
            "INDIGESTION",
            "DYSPEPSIA",
            "HLT_0244",
            "HLGT_0716",
            "SIGNIFICANT PRE-EXISTING CONDITION",
            "GASTROINTESTINAL DISORDERS",
            "MILD",
            1,
            "SCREENING 1",
            -7,
            "2013-08-14",
            "",
            -9
          ],
          [
            213,
            "CDISCPILOT01",
            "MH",
            "01-701-1148",
            16,
            "E02",
            "VERBATIM_1509",
            "SHORTNESS OF BREATH",
            "DYSPNOEA",
            "HLT_0296",
            "HLGT_0255",
            "SIGNIFICANT PRE-EXISTING CONDITION",
            "RESPIRATORY, THORACIC AND MEDIASTINAL DISORDERS",
            "MILD",
            1,
            "SCREENING 1",
            -7,
            "2013-08-14",
            "",
            -9
          ],
          [
            214,
            "CDISCPILOT01",
            "MH",
            "01-701-1148",
            3,
            "E04",
            "VERBATIM_0301",
            "HEADACHE",
            "HEADACHE",
            "HLT_0064",
            "HLGT_0344",
            "SIGNIFICANT PRE-EXISTING CONDITION",
            "NERVOUS SYSTEM DISORDERS",
            "MILD",
            1,
            "SCREENING 1",
            -7,
            "2013-08-14",
            "",
            -9
          ],
          [
            215,
            "CDISCPILOT01",
            "MH",
            "01-701-1148",
            4,
            "E07",
            "VERBATIM_0383",
            "NUMBNESS IN SHOULDER",
            "HYPOAESTHESIA",
            "HLT_0014",
            "HLGT_0528",
            "SIGNIFICANT PRE-EXISTING CONDITION",
            "NERVOUS SYSTEM DISORDERS",
            "MILD",
            1,
            "SCREENING 1",
            -7,
            "2013-08-14",
            "",
            -9
          ],
          [
            216,
            "CDISCPILOT01",
            "MH",
            "01-701-1148",
            9,
            "E06",
            "VERBATIM_0617",
            "NUMBNESS IN FINGERS",
            "HYPOAESTHESIA",
            "HLT_0014",
            "HLGT_0528",
            "SIGNIFICANT PRE-EXISTING CONDITION",
            "NERVOUS SYSTEM DISORDERS",
            "MILD",
            1,
            "SCREENING 1",
            -7,
            "2013-08-14",
            "",
            -9
          ],
          [
            217,
            "CDISCPILOT01",
            "MH",
            "01-701-1148",
            18,
            "E05",
            "VERBATIM_1576",
            "NUMBNESS OF UPPER ARM",
            "HYPOAESTHESIA",
            "HLT_0014",
            "HLGT_0528",
            "SIGNIFICANT PRE-EXISTING CONDITION",
            "NERVOUS SYSTEM DISORDERS",
            "MILD",
            1,
            "SCREENING 1",
            -7,
            "2013-08-14",
            "",
            -9
          ],
          [
            218,
            "CDISCPILOT01",
            "MH",
            "01-701-1148",
            7,
            "E11",
            "VERBATIM_0461",
            "MUSCULAR PAIN",
            "MYALGIA",
            "HLT_0700",
            "HLGT_0121",
            "SIGNIFICANT PRE-EXISTING CONDITION",
            "MUSCULOSKELETAL AND CONNECTIVE TISSUE DISORDERS",
            "MILD",
            1,
            "SCREENING 1",
            -7,
            "2013-08-14",
            "",
            -9
          ],
          [
            219,
            "CDISCPILOT01",
            "MH",
            "01-701-1148",
            13,
            "E15",
            "VERBATIM_1073",
            "MUSCULAR PAIN",
            "MYALGIA",
            "HLT_0700",
            "HLGT_0121",
            "SIGNIFICANT PRE-EXISTING CONDITION",
            "MUSCULOSKELETAL AND CONNECTIVE TISSUE DISORDERS",
            "MILD",
            1,
            "SCREENING 1",
            -7,
            "2013-08-14",
            "",
            -9
          ],
          [
            220,
            "CDISCPILOT01",
            "MH",
            "01-701-1148",
            6,
            "E16",
            "VERBATIM_0453",
            "NERVE PAIN",
            "NEURALGIA",
            "HLT_0486",
            "HLGT_0172",
            "SIGNIFICANT PRE-EXISTING CONDITION",
            "NERVOUS SYSTEM DISORDERS",
            "MILD",
            1,
            "SCREENING 1",
            -7,
            "2013-08-14",
            "",
            -9
          ],
          [
            221,
            "CDISCPILOT01",
            "MH",
            "01-701-1148",
            15,
            "E12",
            "VERBATIM_1213",
            "NERVE PAIN",
            "NEURALGIA",
            "HLT_0486",
            "HLGT_0172",
            "SIGNIFICANT PRE-EXISTING CONDITION",
            "NERVOUS SYSTEM DISORDERS",
            "MILD",
            1,
            "SCREENING 1",
            -7,
            "2013-08-14",
            "",
            -9
          ],
          [
            222,
            "CDISCPILOT01",
            "MH",
            "01-701-1148",
            2,
            "E01",
            "VERBATIM_0266",
            "PALPITATIONS",
            "PALPITATIONS",
            "HLT_0493",
            "HLGT_0593",
            "SIGNIFICANT PRE-EXISTING CONDITION",
            "CARDIAC DISORDERS",
            "MILD",
            1,
            "SCREENING 1",
            -7,
            "2013-08-14",
            "",
            -9
          ],
          [
            223,
            "CDISCPILOT01",
            "MH",
            "01-701-1148",
            14,
            "E09",
            "VERBATIM_1168",
            "POLYARTHRITIS",
            "POLYARTHRITIS",
            "HLT_0134",
            "HLGT_0167",
            "SIGNIFICANT PRE-EXISTING CONDITION",
            "MUSCULOSKELETAL AND CONNECTIVE TISSUE DISORDERS",
            "MILD",
            1,
            "SCREENING 1",
            -7,
            "2013-08-14",
            "",
            -9
          ],
          [
            224,
            "CDISCPILOT01",
            "MH",
            "01-701-1148",
            5,
            "E22",
            "VERBATIM_0396",
            "HAY FEVER",
            "SEASONAL ALLERGY",
            "HLT_0714",
            "HLGT_0782",
            "SIGNIFICANT PRE-EXISTING CONDITION",
            "IMMUNE SYSTEM DISORDERS",
            "MILD",
            1,
            "SCREENING 1",
            -7,
            "2013-08-14",
            "",
            -9
          ],
          [
            225,
            "CDISCPILOT01",
            "MH",
            "01-701-1148",
            28,
            "",
            "VERBATIM_0807",
            "SINUS OPERATION",
            "SINUS OPERATION",
            "HLT_0259",
            "HLGT_0573",
            "HISTORICAL DIAGNOSIS",
            "SURGICAL AND MEDICAL PROCEDURES",
            "",
            1,
            "SCREENING 1",
            -7,
            "2013-08-14",
            "2010",
            -9
          ],
          [
            226,
            "CDISCPILOT01",
            "MH",
            "01-701-1148",
            21,
            "E13",
            "VERBATIM_1769",
            "SINUSITIS",
            "SINUSITIS",
            "HLT_0262",
            "HLGT_0249",
            "SIGNIFICANT PRE-EXISTING CONDITION",
            "INFECTIONS AND INFESTATIONS",
            "MILD",
            1,
            "SCREENING 1",
            -7,
            "2013-08-14",
            "",
            -9
          ],
          [
            227,
            "CDISCPILOT01",
            "MH",
            "01-701-1148",
            26,
            "",
            "VERBATIM_1550",
            "SKIN GRAFT",
            "SKIN GRAFT",
            "HLT_0392",
            "HLGT_0390",
            "HISTORICAL DIAGNOSIS",
            "SURGICAL AND MEDICAL PROCEDURES",
            "",
            1,
            "SCREENING 1",
            -7,
            "2013-08-14",
            "1996",
            -9
          ],
          [
            228,
            "CDISCPILOT01",
            "MH",
            "01-701-1148",
            25,
            "",
            "VERBATIM_0036",
            "BURN",
            "THERMAL BURN",
            "HLT_0092",
            "HLGT_0447",
            "HISTORICAL DIAGNOSIS",
            "INJURY, POISONING AND PROCEDURAL COMPLICATIONS",
            "",
            1,
            "SCREENING 1",
            -7,
            "2013-08-14",
            "1996",
            -9
          ],
          [
            229,
            "CDISCPILOT01",
            "MH",
            "01-701-1148",
            1,
            "E17",
            "VERBATIM_0047",
            "TINNITUS",
            "TINNITUS",
            "HLT_0570",
            "HLGT_0180",
            "SIGNIFICANT PRE-EXISTING CONDITION",
            "EAR AND LABYRINTH DISORDERS",
            "MILD",
            1,
            "SCREENING 1",
            -7,
            "2013-08-14",
            "",
            -9
          ],
          [
            230,
            "CDISCPILOT01",
            "MH",
            "01-701-1153",
            7,
            "",
            "ALZHEIMER'S DISEASE",
            "",
            "",
            "",
            "",
            "PRIMARY DIAGNOSIS",
            "",
            "",
            1,
            "SCREENING 1",
            -7,
            "2013-09-06",
            "2005-05-13",
            -17
          ],
          [
            231,
            "CDISCPILOT01",
            "MH",
            "01-701-1153",
            6,
            "",
            "VERBATIM_0120",
            "ANEMIA",
            "ANAEMIA",
            "HLT_0378",
            "HLGT_0230",
            "HISTORICAL DIAGNOSIS",
            "BLOOD AND LYMPHATIC SYSTEM DISORDERS",
            "",
            1,
            "SCREENING 1",
            -7,
            "2013-09-06",
            "1977",
            -17
          ],
          [
            232,
            "CDISCPILOT01",
            "MH",
            "01-701-1153",
            5,
            "E05",
            "VERBATIM_1751",
            "ASTIGMATISM",
            "ASTIGMATISM",
            "HLT_0494",
            "HLGT_0369",
            "SIGNIFICANT PRE-EXISTING CONDITION",
            "EYE DISORDERS",
            "MILD",
            1,
            "SCREENING 1",
            -7,
            "2013-09-06",
            "",
            -17
          ],
          [
            233,
            "CDISCPILOT01",
            "MH",
            "01-701-1153",
            1,
            "E02",
            "VERBATIM_0301",
            "HEADACHE",
            "HEADACHE",
            "HLT_0064",
            "HLGT_0344",
            "SIGNIFICANT PRE-EXISTING CONDITION",
            "NERVOUS SYSTEM DISORDERS",
            "MILD",
            1,
            "SCREENING 1",
            -7,
            "2013-09-06",
            "",
            -17
          ],
          [
            234,
            "CDISCPILOT01",
            "MH",
            "01-701-1153",
            2,
            "E03",
            "VERBATIM_0390",
            "INCREASED TENDENCY TO BRUISE",
            "INCREASED TENDENCY TO BRUISE",
            "HLT_0359",
            "HLGT_0091",
            "SIGNIFICANT PRE-EXISTING CONDITION",
            "SKIN AND SUBCUTANEOUS TISSUE DISORDERS",
            "MILD",
            1,
            "SCREENING 1",
            -7,
            "2013-09-06",
            "",
            -17
          ],
          [
            235,
            "CDISCPILOT01",
            "MH",
            "01-701-1153",
            4,
            "E04",
            "VERBATIM_1443",
            "NECK PAIN",
            "NECK PAIN",
            "HLT_0203",
            "HLGT_0367",
            "SIGNIFICANT PRE-EXISTING CONDITION",
            "MUSCULOSKELETAL AND CONNECTIVE TISSUE DISORDERS",
            "MILD",
            1,
            "SCREENING 1",
            -7,
            "2013-09-06",
            "",
            -17
          ],
          [
            236,
            "CDISCPILOT01",
            "MH",
            "01-701-1153",
            3,
            "E01",
            "VERBATIM_0705",
            "ANKLE EDEMA",
            "OEDEMA PERIPHERAL",
            "HLT_0661",
            "HLGT_0137",
            "SIGNIFICANT PRE-EXISTING CONDITION",
            "GENERAL DISORDERS AND ADMINISTRATION SITE CONDITIONS",
            "MILD",
            1,
            "SCREENING 1",
            -7,
            "2013-09-06",
            "",
            -17
          ],
          [
            237,
            "CDISCPILOT01",
            "MH",
            "01-701-1153",
            10,
            "",
            "VERBATIM_1769",
            "SINUSITIS",
            "SINUSITIS",
            "HLT_0262",
            "HLGT_0249",
            "HISTORICAL DIAGNOSIS",
            "INFECTIONS AND INFESTATIONS",
            "",
            1,
            "SCREENING 1",
            -7,
            "2013-09-06",
            "2011",
            -17
          ],
          [
            238,
            "CDISCPILOT01",
            "MH",
            "01-701-1153",
            9,
            "",
            "VERBATIM_0688",
            "CARCINOMA SKIN",
            "SKIN CANCER",
            "HLT_0382",
            "HLGT_0439",
            "HISTORICAL DIAGNOSIS",
            "NEOPLASMS BENIGN, MALIGNANT AND UNSPECIFIED (INCL CYSTS AND POLYPS)",
            "",
            1,
            "SCREENING 1",
            -7,
            "2013-09-06",
            "2010",
            -17
          ],
          [
            239,
            "CDISCPILOT01",
            "MH",
            "01-701-1153",
            8,
            "",
            "VERBATIM_0239",
            "SKIN NEOPLASM EXCISION",
            "SKIN NEOPLASM EXCISION",
            "HLT_0482",
            "HLGT_0467",
            "HISTORICAL DIAGNOSIS",
            "SURGICAL AND MEDICAL PROCEDURES",
            "",
            1,
            "SCREENING 1",
            -7,
            "2013-09-06",
            "2010",
            -17
          ],
          [
            240,
            "CDISCPILOT01",
            "MH",
            "01-701-1180",
            2,
            "",
            "ALZHEIMER'S DISEASE",
            "",
            "",
            "",
            "",
            "PRIMARY DIAGNOSIS",
            "",
            "",
            1,
            "SCREENING 1",
            -7,
            "2013-01-28",
            "2008-09-21",
            -15
          ],
          [
            241,
            "CDISCPILOT01",
            "MH",
            "01-701-1180",
            1,
            "E04",
            "VERBATIM_0929",
            "HEADACHE",
            "HEADACHE",
            "HLT_0064",
            "HLGT_0344",
            "SIGNIFICANT PRE-EXISTING CONDITION",
            "NERVOUS SYSTEM DISORDERS",
            "MILD",
            1,
            "SCREENING 1",
            -7,
            "2013-01-28",
            "",
            -15
          ],
          [
            242,
            "CDISCPILOT01",
            "MH",
            "01-701-1181",
            22,
            "",
            "ALZHEIMER'S DISEASE",
            "",
            "",
            "",
            "",
            "PRIMARY DIAGNOSIS",
            "",
            "",
            1,
            "SCREENING 1",
            -7,
            "2013-11-26",
            "2008-08-26",
            -9
          ],
          [
            243,
            "CDISCPILOT01",
            "MH",
            "01-701-1181",
            8,
            "E11",
            "VERBATIM_0733",
            "KNEE PAIN",
            "ARTHRALGIA",
            "HLT_0375",
            "HLGT_0610",
            "SIGNIFICANT PRE-EXISTING CONDITION",
            "MUSCULOSKELETAL AND CONNECTIVE TISSUE DISORDERS",
            "MILD",
            1,
            "SCREENING 1",
            -7,
            "2013-11-26",
            "",
            -9
          ],
          [
            244,
            "CDISCPILOT01",
            "MH",
            "01-701-1181",
            13,
            "E10",
            "VERBATIM_1327",
            "PAIN IN HIP",
            "ARTHRALGIA",
            "HLT_0375",
            "HLGT_0610",
            "SIGNIFICANT PRE-EXISTING CONDITION",
            "MUSCULOSKELETAL AND CONNECTIVE TISSUE DISORDERS",
            "MILD",
            1,
            "SCREENING 1",
            -7,
            "2013-11-26",
            "",
            -9
          ],
          [
            245,
            "CDISCPILOT01",
            "MH",
            "01-701-1181",
            23,
            "",
            "VERBATIM_1176",
            "BRONCHITIS",
            "BRONCHITIS",
            "HLT_0634",
            "HLGT_0523",
            "HISTORICAL DIAGNOSIS",
            "INFECTIONS AND INFESTATIONS",
            "",
            1,
            "SCREENING 1",
            -7,
            "2013-11-26",
            "2009",
            -9
          ],
          [
            246,
            "CDISCPILOT01",
            "MH",
            "01-701-1181",
            15,
            "E03",
            "VERBATIM_1644",
            "NOCTURNAL CONFUSION",
            "CONFUSIONAL STATE",
            "HLT_0642",
            "HLGT_0329",
            "SIGNIFICANT PRE-EXISTING CONDITION",
            "PSYCHIATRIC DISORDERS",
            "MILD",
            1,
            "SCREENING 1",
            -7,
            "2013-11-26",
            "",
            -9
          ],
          [
            247,
            "CDISCPILOT01",
            "MH",
            "01-701-1181",
            24,
            "",
            "VERBATIM_0303",
            "COUGH INCREASED",
            "COUGH",
            "HLT_0701",
            "HLGT_0280",
            "HISTORICAL DIAGNOSIS",
            "RESPIRATORY, THORACIC AND MEDIASTINAL DISORDERS",
            "",
            1,
            "SCREENING 1",
            -7,
            "2013-11-26",
            "2012-06-08",
            -9
          ],
          [
            248,
            "CDISCPILOT01",
            "MH",
            "01-701-1181",
            11,
            "E13",
            "VERBATIM_0978",
            "HEARING LOSS BILATERAL",
            "DEAFNESS BILATERAL",
            "HLT_0567",
            "HLGT_0426",
            "SIGNIFICANT PRE-EXISTING CONDITION",
            "EAR AND LABYRINTH DISORDERS",
            "MILD",
            1,
            "SCREENING 1",
            -7,
            "2013-11-26",
            "",
            -9
          ],
          [
            249,
            "CDISCPILOT01",
            "MH",
            "01-701-1181",
            7,
            "E15",
            "VERBATIM_0686",
            "DENTURE WEARER",
            "DENTURE WEARER",
            "HLT_0246",
            "HLGT_0763",
            "SIGNIFICANT PRE-EXISTING CONDITION",
            "SOCIAL CIRCUMSTANCES",
            "MILD",
            1,
            "SCREENING 1",
            -7,
            "2013-11-26",
            "",
            -9
          ],
          [
            250,
            "CDISCPILOT01",
            "MH",
            "01-701-1181",
            14,
            "E02",
            "VERBATIM_1533",
            "DIZZINESS",
            "DIZZINESS",
            "HLT_0619",
            "HLGT_0751",
            "SIGNIFICANT PRE-EXISTING CONDITION",
            "NERVOUS SYSTEM DISORDERS",
            "MILD",
            1,
            "SCREENING 1",
            -7,
            "2013-11-26",
            "",
            -9
          ],
          [
            251,
            "CDISCPILOT01",
            "MH",
            "01-701-1181",
            3,
            "E07",
            "VERBATIM_0462",
            "FINGER AMPUTATION",
            "FINGER AMPUTATION",
            "HLT_0746",
            "HLGT_0244",
            "SIGNIFICANT PRE-EXISTING CONDITION",
            "SURGICAL AND MEDICAL PROCEDURES",
            "MILD",
            1,
            "SCREENING 1",
            -7,
            "2013-11-26",
            "",
            -9
          ],
          [
            252,
            "CDISCPILOT01",
            "MH",
            "01-701-1181",
            10,
            "E06",
            "VERBATIM_0966",
            "FINGER DEFORMITY",
            "FINGER DEFORMITY",
            "HLT_0600",
            "HLGT_0600",
            "SIGNIFICANT PRE-EXISTING CONDITION",
            "MUSCULOSKELETAL AND CONNECTIVE TISSUE DISORDERS",
            "MILD",
            1,
            "SCREENING 1",
            -7,
            "2013-11-26",
            "",
            -9
          ],
          [
            253,
            "CDISCPILOT01",
            "MH",
            "01-701-1181",
            21,
            "",
            "VERBATIM_1143",
            "HEAD INJURY",
            "HEAD INJURY",
            "HLT_0201",
            "HLGT_0554",
            "HISTORICAL DIAGNOSIS",
            "INJURY, POISONING AND PROCEDURAL COMPLICATIONS",
            "",
            1,
            "SCREENING 1",
            -7,
            "2013-11-26",
            "2006",
            -9
          ],
          [
            254,
            "CDISCPILOT01",
            "MH",
            "01-701-1181",
            9,
            "E01",
            "VERBATIM_0929",
            "HEADACHE",
            "HEADACHE",
            "HLT_0064",
            "HLGT_0344",
            "SIGNIFICANT PRE-EXISTING CONDITION",
            "NERVOUS SYSTEM DISORDERS",
            "MILD",
            1,
            "SCREENING 1",
            -7,
            "2013-11-26",
            "",
            -9
          ],
          [
            255,
            "CDISCPILOT01",
            "MH",
            "01-701-1181",
            17,
            "",
            "VERBATIM_0167",
            "TOTAL HYSTERECTOMY",
            "HYSTERECTOMY",
            "HLT_0675",
            "HLGT_0657",
            "HISTORICAL DIAGNOSIS",
            "SURGICAL AND MEDICAL PROCEDURES",
            "",
            1,
            "SCREENING 1",
            -7,
            "2013-11-26",
            "1967",
            -9
          ],
          [
            256,
            "CDISCPILOT01",
            "MH",
            "01-701-1181",
            20,
            "",
            "VERBATIM_0192",
            "ANKLE INJURY",
            "JOINT INJURY",
            "HLT_0264",
            "HLGT_0127",
            "HISTORICAL DIAGNOSIS",
            "INJURY, POISONING AND PROCEDURAL COMPLICATIONS",
            "",
            1,
            "SCREENING 1",
            -7,
            "2013-11-26",
            "2006",
            -9
          ],
          [
            257,
            "CDISCPILOT01",
            "MH",
            "01-701-1181",
            5,
            "E17",
            "VERBATIM_0640",
            "ANKLE EDEMA",
            "OEDEMA PERIPHERAL",
            "HLT_0661",
            "HLGT_0137",
            "SIGNIFICANT PRE-EXISTING CONDITION",
            "GENERAL DISORDERS AND ADMINISTRATION SITE CONDITIONS",
            "MILD",
            1,
            "SCREENING 1",
            -7,
            "2013-11-26",
            "",
            -9
          ],
          [
            258,
            "CDISCPILOT01",
            "MH",
            "01-701-1181",
            1,
            "E05",
            "VERBATIM_0048",
            "PAIN TRAUMA ACTIVATED",
            "PAIN TRAUMA ACTIVATED",
            "HLT_0579",
            "HLGT_0732",
            "SIGNIFICANT PRE-EXISTING CONDITION",
            "INJURY, POISONING AND PROCEDURAL COMPLICATIONS",
            "MILD",
            1,
            "SCREENING 1",
            -7,
            "2013-11-26",
            "",
            -9
          ],
          [
            259,
            "CDISCPILOT01",
            "MH",
            "01-701-1181",
            2,
            "E04",
            "VERBATIM_0062",
            "PAIN TRAUMA ACTIVATED",
            "PAIN TRAUMA ACTIVATED",
            "HLT_0579",
            "HLGT_0732",
            "SIGNIFICANT PRE-EXISTING CONDITION",
            "INJURY, POISONING AND PROCEDURAL COMPLICATIONS",
            "MILD",
            1,
            "SCREENING 1",
            -7,
            "2013-11-26",
            "",
            -9
          ],
          [
            260,
            "CDISCPILOT01",
            "MH",
            "01-701-1181",
            19,
            "",
            "VERBATIM_0124",
            "WALKING PNEUMONIA",
            "PNEUMONIA PRIMARY ATYPICAL",
            "HLT_0364",
            "HLGT_0065",
            "HISTORICAL DIAGNOSIS",
            "INFECTIONS AND INFESTATIONS",
            "",
            1,
            "SCREENING 1",
            -7,
            "2013-11-26",
            "1989",
            -9
          ],
          [
            261,
            "CDISCPILOT01",
            "MH",
            "01-701-1181",
            4,
            "E14",
            "VERBATIM_0507",
            "PRESBYOPIA",
            "PRESBYOPIA",
            "HLT_0230",
            "HLGT_0759",
            "SIGNIFICANT PRE-EXISTING CONDITION",
            "EYE DISORDERS",
            "MILD",
            1,
            "SCREENING 1",
            -7,
            "2013-11-26",
            "",
            -9
          ],
          [
            262,
            "CDISCPILOT01",
            "MH",
            "01-701-1181",
            6,
            "E09",
            "VERBATIM_0671",
            "SHOULDER PAIN",
            "SHOULDER PAIN",
            "HLT_0527",
            "HLGT_0288",
            "SIGNIFICANT PRE-EXISTING CONDITION",
            "MUSCULOSKELETAL AND CONNECTIVE TISSUE DISORDERS",
            "MILD",
            1,
            "SCREENING 1",
            -7,
            "2013-11-26",
            "",
            -9
          ],
          [
            263,
            "CDISCPILOT01",
            "MH",
            "01-701-1181",
            12,
            "E08",
            "VERBATIM_1215",
            "BONE INJURY",
            "SKELETAL INJURY",
            "HLT_0679",
            "HLGT_0099",
            "SIGNIFICANT PRE-EXISTING CONDITION",
            "INJURY, POISONING AND PROCEDURAL COMPLICATIONS",
            "MILD",
            1,
            "SCREENING 1",
            -7,
            "2013-11-26",
            "",
            -9
          ],
          [
            264,
            "CDISCPILOT01",
            "MH",
            "01-701-1181",
            16,
            "",
            "VERBATIM_1716",
            "TONSILLECTOMY",
            "TONSILLECTOMY",
            "HLT_0202",
            "HLGT_0199",
            "HISTORICAL DIAGNOSIS",
            "SURGICAL AND MEDICAL PROCEDURES",
            "",
            1,
            "SCREENING 1",
            -7,
            "2013-11-26",
            "1940",
            -9
          ],
          [
            265,
            "CDISCPILOT01",
            "MH",
            "01-701-1181",
            18,
            "",
            "VERBATIM_0204",
            "TOOTH EXTRACTION",
            "TOOTH EXTRACTION",
            "HLT_0209",
            "HLGT_0762",
            "HISTORICAL DIAGNOSIS",
            "SURGICAL AND MEDICAL PROCEDURES",
            "",
            1,
            "SCREENING 1",
            -7,
            "2013-11-26",
            "1980",
            -9
          ],
          [
            266,
            "CDISCPILOT01",
            "MH",
            "01-701-1188",
            9,
            "",
            "ALZHEIMER'S DISEASE",
            "",
            "",
            "",
            "",
            "PRIMARY DIAGNOSIS",
            "",
            "",
            1,
            "SCREENING 1",
            -7,
            "2013-02-03",
            "2005-09-14",
            -12
          ],
          [
            267,
            "CDISCPILOT01",
            "MH",
            "01-701-1188",
            6,
            "",
            "VERBATIM_0138",
            "BENIGN PROSTATIC HYPERTROPHY",
            "BENIGN PROSTATIC HYPERPLASIA",
            "HLT_0215",
            "HLGT_0568",
            "HISTORICAL DIAGNOSIS",
            "REPRODUCTIVE SYSTEM AND BREAST DISORDERS",
            "",
            1,
            "SCREENING 1",
            -7,
            "2013-02-03",
            "1996",
            -12
          ],
          [
            268,
            "CDISCPILOT01",
            "MH",
            "01-701-1188",
            3,
            "E01",
            "VERBATIM_1279",
            "DRY SKIN",
            "DRY SKIN",
            "HLT_0028",
            "HLGT_0096",
            "SIGNIFICANT PRE-EXISTING CONDITION",
            "SKIN AND SUBCUTANEOUS TISSUE DISORDERS",
            "MILD",
            1,
            "SCREENING 1",
            -7,
            "2013-02-03",
            "",
            -12
          ],
          [
            269,
            "CDISCPILOT01",
            "MH",
            "01-701-1188",
            1,
            "E02",
            "VERBATIM_0101",
            "GANGLION",
            "GANGLION",
            "HLT_0674",
            "HLGT_0046",
            "SIGNIFICANT PRE-EXISTING CONDITION",
            "MUSCULOSKELETAL AND CONNECTIVE TISSUE DISORDERS",
            "MILD",
            1,
            "SCREENING 1",
            -7,
            "2013-02-03",
            "",
            -12
          ],
          [
            270,
            "CDISCPILOT01",
            "MH",
            "01-701-1188",
            8,
            "",
            "VERBATIM_0080",
            "HEADACHE",
            "HEADACHE",
            "HLT_0064",
            "HLGT_0344",
            "HISTORICAL DIAGNOSIS",
            "NERVOUS SYSTEM DISORDERS",
            "",
            1,
            "SCREENING 1",
            -7,
            "2013-02-03",
            "2001",
            -12
          ],
          [
            271,
            "CDISCPILOT01",
            "MH",
            "01-701-1188",
            10,
            "",
            "VERBATIM_1230",
            "SORE THROAT",
            "PHARYNGOLARYNGEAL PAIN",
            "HLT_0130",
            "HLGT_0402",
            "HISTORICAL DIAGNOSIS",
            "RESPIRATORY, THORACIC AND MEDIASTINAL DISORDERS",
            "",
            1,
            "SCREENING 1",
            -7,
            "2013-02-03",
            "2011-06-08",
            -12
          ],
          [
            272,
            "CDISCPILOT01",
            "MH",
            "01-701-1188",
            2,
            "E03",
            "VERBATIM_0507",
            "PRESBYOPIA",
            "PRESBYOPIA",
            "HLT_0230",
            "HLGT_0759",
            "SIGNIFICANT PRE-EXISTING CONDITION",
            "EYE DISORDERS",
            "MILD",
            1,
            "SCREENING 1",
            -7,
            "2013-02-03",
            "",
            -12
          ],
          [
            273,
            "CDISCPILOT01",
            "MH",
            "01-701-1188",
            7,
            "",
            "VERBATIM_1363",
            "PROSTATIC OPERATION",
            "PROSTATIC OPERATION",
            "HLT_0385",
            "HLGT_0342",
            "HISTORICAL DIAGNOSIS",
            "SURGICAL AND MEDICAL PROCEDURES",
            "",
            1,
            "SCREENING 1",
            -7,
            "2013-02-03",
            "1996",
            -12
          ],
          [
            274,
            "CDISCPILOT01",
            "MH",
            "01-701-1188",
            5,
            "",
            "VERBATIM_1733",
            "ALLERGIC URTICARIA",
            "URTICARIA",
            "HLT_0420",
            "HLGT_0705",
            "HISTORICAL DIAGNOSIS",
            "SKIN AND SUBCUTANEOUS TISSUE DISORDERS",
            "",
            1,
            "SCREENING 1",
            -7,
            "2013-02-03",
            "1991",
            -12
          ],
          [
            275,
            "CDISCPILOT01",
            "MH",
            "01-701-1188",
            4,
            "",
            "VERBATIM_1729",
            "WISDOM TEETH REMOVAL",
            "WISDOM TEETH REMOVAL",
            "HLT_0442",
            "HLGT_0679",
            "HISTORICAL DIAGNOSIS",
            "SURGICAL AND MEDICAL PROCEDURES",
            "",
            1,
            "SCREENING 1",
            -7,
            "2013-02-03",
            "1964",
            -12
          ],
          [
            276,
            "CDISCPILOT01",
            "MH",
            "01-701-1192",
            15,
            "",
            "ALZHEIMER'S DISEASE",
            "",
            "",
            "",
            "",
            "PRIMARY DIAGNOSIS",
            "",
            "",
            1,
            "SCREENING 1",
            -7,
            "2012-07-08",
            "2009-03-15",
            -14
          ],
          [
            277,
            "CDISCPILOT01",
            "MH",
            "01-701-1192",
            9,
            "",
            "VERBATIM_0435",
            "ABORTION",
            "ABORTION",
            "HLT_0624",
            "HLGT_0366",
            "HISTORICAL DIAGNOSIS",
            "PREGNANCY, PUERPERIUM AND PERINATAL CONDITIONS",
            "",
            1,
            "SCREENING 1",
            -7,
            "2012-07-08",
            "1946",
            -14
          ],
          [
            278,
            "CDISCPILOT01",
            "MH",
            "01-701-1192",
            3,
            "E03",
            "VERBATIM_1309",
            "ARTHRITIS",
            "ARTHRITIS",
            "HLT_0019",
            "HLGT_0587",
            "SIGNIFICANT PRE-EXISTING CONDITION",
            "MUSCULOSKELETAL AND CONNECTIVE TISSUE DISORDERS",
            "MILD",
            1,
            "SCREENING 1",
            -7,
            "2012-07-08",
            "",
            -14
          ],
          [
            279,
            "CDISCPILOT01",
            "MH",
            "01-701-1192",
            21,
            "",
            "VERBATIM_1176",
            "BRONCHITIS",
            "BRONCHITIS",
            "HLT_0634",
            "HLGT_0523",
            "HISTORICAL DIAGNOSIS",
            "INFECTIONS AND INFESTATIONS",
            "",
            1,
            "SCREENING 1",
            -7,
            "2012-07-08",
            "2010-09",
            -14
          ],
          [
            280,
            "CDISCPILOT01",
            "MH",
            "01-701-1192",
            4,
            "E01",
            "VERBATIM_1421",
            "COUGH",
            "COUGH",
            "HLT_0701",
            "HLGT_0280",
            "SIGNIFICANT PRE-EXISTING CONDITION",
            "RESPIRATORY, THORACIC AND MEDIASTINAL DISORDERS",
            "MILD",
            1,
            "SCREENING 1",
            -7,
            "2012-07-08",
            "",
            -14
          ],
          [
            281,
            "CDISCPILOT01",
            "MH",
            "01-701-1192",
            18,
            "",
            "VERBATIM_0576",
            "CYST",
            "CYST",
            "HLT_0763",
            "HLGT_0341",
            "HISTORICAL DIAGNOSIS",
            "GENERAL DISORDERS AND ADMINISTRATION SITE CONDITIONS",
            "",
            1,
            "SCREENING 1",
            -7,
            "2012-07-08",
            "2010-04-22",
            -14
          ],
          [
            282,
            "CDISCPILOT01",
            "MH",
            "01-701-1192",
            7,
            "E04",
            "VERBATIM_1677",
            "HEARING LOSS BILATERAL",
            "DEAFNESS BILATERAL",
            "HLT_0567",
            "HLGT_0426",
            "SIGNIFICANT PRE-EXISTING CONDITION",
            "EAR AND LABYRINTH DISORDERS",
            "MILD",
            1,
            "SCREENING 1",
            -7,
            "2012-07-08",
            "",
            -14
          ],
          [
            283,
            "CDISCPILOT01",
            "MH",
            "01-701-1192",
            22,
            "",
            "VERBATIM_1533",
            "DIZZINESS",
            "DIZZINESS",
            "HLT_0619",
            "HLGT_0751",
            "HISTORICAL DIAGNOSIS",
            "NERVOUS SYSTEM DISORDERS",
            "",
            1,
            "SCREENING 1",
            -7,
            "2012-07-08",
            "2011-01",
            -14
          ],
          [
            284,
            "CDISCPILOT01",
            "MH",
            "01-701-1192",
            12,
            "",
            "VERBATIM_0721",
            "DUODENAL ULCER",
            "DUODENAL ULCER",
            "HLT_0322",
            "HLGT_0349",
            "HISTORICAL DIAGNOSIS",
            "GASTROINTESTINAL DISORDERS",
            "",
            1,
            "SCREENING 1",
            -7,
            "2012-07-08",
            "1966",
            -14
          ],
          [
            285,
            "CDISCPILOT01",
            "MH",
            "01-701-1192",
            5,
            "E02",
            "VERBATIM_1432",
            "THYROID ENLARGED",
            "GOITRE",
            "HLT_0573",
            "HLGT_0499",
            "SIGNIFICANT PRE-EXISTING CONDITION",
            "ENDOCRINE DISORDERS",
            "MODERATE",
            1,
            "SCREENING 1",
            -7,
            "2012-07-08",
            "",
            -14
          ],
          [
            286,
            "CDISCPILOT01",
            "MH",
            "01-701-1192",
            10,
            "",
            "VERBATIM_1475",
            "GONORRHEA",
            "GONORRHOEA",
            "HLT_0638",
            "HLGT_0171",
            "HISTORICAL DIAGNOSIS",
            "INFECTIONS AND INFESTATIONS",
            "",
            1,
            "SCREENING 1",
            -7,
            "2012-07-08",
            "1946",
            -14
          ],
          [
            287,
            "CDISCPILOT01",
            "MH",
            "01-701-1192",
            11,
            "",
            "VERBATIM_0301",
            "HEADACHE",
            "HEADACHE",
            "HLT_0064",
            "HLGT_0344",
            "HISTORICAL DIAGNOSIS",
            "NERVOUS SYSTEM DISORDERS",
            "",
            1,
            "SCREENING 1",
            -7,
            "2012-07-08",
            "1966",
            -14
          ],
          [
            288,
            "CDISCPILOT01",
            "MH",
            "01-701-1192",
            13,
            "",
            "VERBATIM_1436",
            "HIP REPLACEMENT",
            "HIP ARTHROPLASTY",
            "HLT_0709",
            "HLGT_0449",
            "HISTORICAL DIAGNOSIS",
            "SURGICAL AND MEDICAL PROCEDURES",
            "",
            1,
            "SCREENING 1",
            -7,
            "2012-07-08",
            "2000",
            -14
          ],
          [
            289,
            "CDISCPILOT01",
            "MH",
            "01-701-1192",
            6,
            "E07",
            "VERBATIM_1674",
            "DELAYED HEALING OF WOUND",
            "IMPAIRED HEALING",
            "HLT_0424",
            "HLGT_0459",
            "SIGNIFICANT PRE-EXISTING CONDITION",
            "GENERAL DISORDERS AND ADMINISTRATION SITE CONDITIONS",
            "MILD",
            1,
            "SCREENING 1",
            -7,
            "2012-07-08",
            "",
            -14
          ],
          [
            290,
            "CDISCPILOT01",
            "MH",
            "01-701-1192",
            16,
            "",
            "VERBATIM_1562",
            "MALAISE",
            "MALAISE",
            "HLT_0456",
            "HLGT_0178",
            "HISTORICAL DIAGNOSIS",
            "GENERAL DISORDERS AND ADMINISTRATION SITE CONDITIONS",
            "",
            1,
            "SCREENING 1",
            -7,
            "2012-07-08",
            "2009-04",
            -14
          ],
          [
            291,
            "CDISCPILOT01",
            "MH",
            "01-701-1192",
            2,
            "E15",
            "VERBATIM_0908",
            "INFERIOR MYOCARDIAL INFARCTION",
            "MYOCARDIAL INFARCTION",
            "HLT_0649",
            "HLGT_0688",
            "SIGNIFICANT PRE-EXISTING CONDITION",
            "CARDIAC DISORDERS",
            "MILD",
            1,
            "SCREENING 1",
            -7,
            "2012-07-08",
            "",
            -14
          ],
          [
            292,
            "CDISCPILOT01",
            "MH",
            "01-701-1192",
            19,
            "",
            "VERBATIM_1391",
            "NASAL CYST REMOVAL",
            "NASAL CYST REMOVAL",
            "HLT_0086",
            "HLGT_0082",
            "HISTORICAL DIAGNOSIS",
            "SURGICAL AND MEDICAL PROCEDURES",
            "",
            1,
            "SCREENING 1",
            -7,
            "2012-07-08",
            "2010-04-22",
            -14
          ],
          [
            293,
            "CDISCPILOT01",
            "MH",
            "01-701-1192",
            1,
            "E05",
            "VERBATIM_0507",
            "PRESBYOPIA",
            "PRESBYOPIA",
            "HLT_0230",
            "HLGT_0759",
            "SIGNIFICANT PRE-EXISTING CONDITION",
            "EYE DISORDERS",
            "MILD",
            1,
            "SCREENING 1",
            -7,
            "2012-07-08",
            "",
            -14
          ],
          [
            294,
            "CDISCPILOT01",
            "MH",
            "01-701-1192",
            8,
            "",
            "VERBATIM_1716",
            "TONSILLECTOMY",
            "TONSILLECTOMY",
            "HLT_0202",
            "HLGT_0199",
            "HISTORICAL DIAGNOSIS",
            "SURGICAL AND MEDICAL PROCEDURES",
            "",
            1,
            "SCREENING 1",
            -7,
            "2012-07-08",
            "1944",
            -14
          ],
          [
            295,
            "CDISCPILOT01",
            "MH",
            "01-701-1192",
            20,
            "",
            "VERBATIM_0579",
            "UPPER RESPIRATORY INFECTION",
            "UPPER RESPIRATORY TRACT INFECTION",
            "HLT_0520",
            "HLGT_0489",
            "HISTORICAL DIAGNOSIS",
            "INFECTIONS AND INFESTATIONS",
            "",
            1,
            "SCREENING 1",
            -7,
            "2012-07-08",
            "2010-09",
            -14
          ],
          [
            296,
            "CDISCPILOT01",
            "MH",
            "01-701-1192",
            17,
            "",
            "VERBATIM_1703",
            "VERTIGO",
            "VERTIGO",
            "HLT_0255",
            "HLGT_0147",
            "HISTORICAL DIAGNOSIS",
            "EAR AND LABYRINTH DISORDERS",
            "",
            1,
            "SCREENING 1",
            -7,
            "2012-07-08",
            "2009-04",
            -14
          ],
          [
            297,
            "CDISCPILOT01",
            "MH",
            "01-701-1203",
            10,
            "",
            "ALZHEIMER'S DISEASE",
            "",
            "",
            "",
            "",
            "PRIMARY DIAGNOSIS",
            "",
            "",
            1,
            "SCREENING 1",
            -7,
            "2013-01-25",
            "2011-04-19",
            -8
          ],
          [
            298,
            "CDISCPILOT01",
            "MH",
            "01-701-1203",
            1,
            "E02",
            "VERBATIM_0287",
            "KNEE PAIN",
            "ARTHRALGIA",
            "HLT_0375",
            "HLGT_0610",
            "SIGNIFICANT PRE-EXISTING CONDITION",
            "MUSCULOSKELETAL AND CONNECTIVE TISSUE DISORDERS",
            "MILD",
            1,
            "SCREENING 1",
            -7,
            "2013-01-25",
            "",
            -8
          ],
          [
            299,
            "CDISCPILOT01",
            "MH",
            "01-701-1203",
            7,
            "",
            "VERBATIM_1506",
            "BREAST CANCER",
            "BREAST CANCER",
            "HLT_0101",
            "HLGT_0442",
            "HISTORICAL DIAGNOSIS",
            "NEOPLASMS BENIGN, MALIGNANT AND UNSPECIFIED (INCL CYSTS AND POLYPS)",
            "",
            1,
            "SCREENING 1",
            -7,
            "2013-01-25",
            "1972",
            -8
          ],
          [
            300,
            "CDISCPILOT01",
            "MH",
            "01-701-1203",
            2,
            "E03",
            "VERBATIM_0308",
            "GLAUCOMA",
            "GLAUCOMA",
            "HLT_0556",
            "HLGT_0734",
            "SIGNIFICANT PRE-EXISTING CONDITION",
            "EYE DISORDERS",
            "MODERATE",
            1,
            "SCREENING 1",
            -7,
            "2013-01-25",
            "",
            -8
          ],
          [
            301,
            "CDISCPILOT01",
            "MH",
            "01-701-1203",
            8,
            "",
            "VERBATIM_1484",
            "HYPERTHYROIDISM",
            "HYPERTHYROIDISM",
            "HLT_0441",
            "HLGT_0736",
            "HISTORICAL DIAGNOSIS",
            "ENDOCRINE DISORDERS",
            "",
            1,
            "SCREENING 1",
            -7,
            "2013-01-25",
            "1991",
            -8
          ],
          [
            302,
            "CDISCPILOT01",
            "MH",
            "01-701-1203",
            5,
            "",
            "VERBATIM_0682",
            "TOTAL HYSTERECTOMY",
            "HYSTERECTOMY",
            "HLT_0675",
            "HLGT_0657",
            "HISTORICAL DIAGNOSIS",
            "SURGICAL AND MEDICAL PROCEDURES",
            "",
            1,
            "SCREENING 1",
            -7,
            "2013-01-25",
            "1971",
            -8
          ],
          [
            303,
            "CDISCPILOT01",
            "MH",
            "01-701-1203",
            9,
            "",
            "VERBATIM_1487",
            "KNEE TOTAL REPLACEMENT",
            "KNEE ARTHROPLASTY",
            "HLT_0710",
            "HLGT_0078",
            "HISTORICAL DIAGNOSIS",
            "SURGICAL AND MEDICAL PROCEDURES",
            "",
            1,
            "SCREENING 1",
            -7,
            "2013-01-25",
            "2008",
            -8
          ],
          [
            304,
            "CDISCPILOT01",
            "MH",
            "01-701-1203",
            4,
            "E01",
            "VERBATIM_1491",
            "POLYARTHRITIS",
            "POLYARTHRITIS",
            "HLT_0134",
            "HLGT_0167",
            "SIGNIFICANT PRE-EXISTING CONDITION",
            "MUSCULOSKELETAL AND CONNECTIVE TISSUE DISORDERS",
            "MODERATE",
            1,
            "SCREENING 1",
            -7,
            "2013-01-25",
            "",
            -8
          ],
          [
            305,
            "CDISCPILOT01",
            "MH",
            "01-701-1203",
            3,
            "E04",
            "VERBATIM_0507",
            "PRESBYOPIA",
            "PRESBYOPIA",
            "HLT_0230",
            "HLGT_0759",
            "SIGNIFICANT PRE-EXISTING CONDITION",
            "EYE DISORDERS",
            "MODERATE",
            1,
            "SCREENING 1",
            -7,
            "2013-01-25",
            "",
            -8
          ],
          [
            306,
            "CDISCPILOT01",
            "MH",
            "01-701-1203",
            6,
            "",
            "VERBATIM_0606",
            "MASTECTOMY RADICAL",
            "RADICAL MASTECTOMY",
            "HLT_0697",
            "HLGT_0545",
            "HISTORICAL DIAGNOSIS",
            "SURGICAL AND MEDICAL PROCEDURES",
            "",
            1,
            "SCREENING 1",
            -7,
            "2013-01-25",
            "1972",
            -8
          ],
          [
            307,
            "CDISCPILOT01",
            "MH",
            "01-701-1211",
            8,
            "",
            "ALZHEIMER'S DISEASE",
            "",
            "",
            "",
            "",
            "PRIMARY DIAGNOSIS",
            "",
            "",
            1,
            "SCREENING 1",
            -7,
            "2012-10-30",
            "2010-03-19",
            -16
          ],
          [
            308,
            "CDISCPILOT01",
            "MH",
            "01-701-1211",
            1,
            "E02",
            "VERBATIM_0200",
            "DENTURE WEARER",
            "DENTURE WEARER",
            "HLT_0246",
            "HLGT_0763",
            "SIGNIFICANT PRE-EXISTING CONDITION",
            "SOCIAL CIRCUMSTANCES",
            "MILD",
            1,
            "SCREENING 1",
            -7,
            "2012-10-30",
            "",
            -16
          ],
          [
            309,
            "CDISCPILOT01",
            "MH",
            "01-701-1211",
            4,
            "E01",
            "VERBATIM_1573",
            "NON-INSULIN-DEPENDENT DIABETES MELLITUS",
            "DIABETES MELLITUS NON-INSULIN-DEPENDENT",
            "HLT_0706",
            "HLGT_0092",
            "SIGNIFICANT PRE-EXISTING CONDITION",
            "METABOLISM AND NUTRITION DISORDERS",
            "MILD",
            1,
            "SCREENING 1",
            -7,
            "2012-10-30",
            "",
            -16
          ],
          [
            310,
            "CDISCPILOT01",
            "MH",
            "01-701-1211",
            3,
            "E10",
            "VERBATIM_1126",
            "DIARRHEA",
            "DIARRHOEA",
            "HLT_0148",
            "HLGT_0588",
            "SIGNIFICANT PRE-EXISTING CONDITION",
            "GASTROINTESTINAL DISORDERS",
            "MILD",
            1,
            "SCREENING 1",
            -7,
            "2012-10-30",
            "",
            -16
          ],
          [
            311,
            "CDISCPILOT01",
            "MH",
            "01-701-1211",
            6,
            "",
            "VERBATIM_0936",
            "HYSTERECTOMY",
            "HYSTERECTOMY",
            "HLT_0675",
            "HLGT_0657",
            "HISTORICAL DIAGNOSIS",
            "SURGICAL AND MEDICAL PROCEDURES",
            "",
            1,
            "SCREENING 1",
            -7,
            "2012-10-30",
            "1971",
            -16
          ],
          [
            312,
            "CDISCPILOT01",
            "MH",
            "01-701-1211",
            7,
            "",
            "VERBATIM_1498",
            "LENS IMPLANT",
            "LENS IMPLANT",
            "HLT_0106",
            "HLGT_0204",
            "HISTORICAL DIAGNOSIS",
            "SURGICAL AND MEDICAL PROCEDURES",
            "",
            1,
            "SCREENING 1",
            -7,
            "2012-10-30",
            "1996",
            -16
          ],
          [
            313,
            "CDISCPILOT01",
            "MH",
            "01-701-1211",
            9,
            "",
            "VERBATIM_0859",
            "LEG INJURY",
            "LIMB INJURY",
            "HLT_0476",
            "HLGT_0667",
            "HISTORICAL DIAGNOSIS",
            "INJURY, POISONING AND PROCEDURAL COMPLICATIONS",
            "",
            1,
            "SCREENING 1",
            -7,
            "2012-10-30",
            "2011",
            -16
          ],
          [
            314,
            "CDISCPILOT01",
            "MH",
            "01-701-1211",
            10,
            "",
            "VERBATIM_0948",
            "LEG ULCER (EXCL VARICOSE)",
            "SKIN ULCER",
            "HLT_0005",
            "HLGT_0017",
            "HISTORICAL DIAGNOSIS",
            "SKIN AND SUBCUTANEOUS TISSUE DISORDERS",
            "",
            1,
            "SCREENING 1",
            -7,
            "2012-10-30",
            "2011",
            -16
          ],
          [
            315,
            "CDISCPILOT01",
            "MH",
            "01-701-1211",
            2,
            "E07",
            "VERBATIM_0713",
            "NOISES IN HEAD",
            "TINNITUS",
            "HLT_0570",
            "HLGT_0180",
            "SIGNIFICANT PRE-EXISTING CONDITION",
            "EAR AND LABYRINTH DISORDERS",
            "MILD",
            1,
            "SCREENING 1",
            -7,
            "2012-10-30",
            "",
            -16
          ],
          [
            316,
            "CDISCPILOT01",
            "MH",
            "01-701-1211",
            5,
            "",
            "VERBATIM_1716",
            "TONSILLECTOMY",
            "TONSILLECTOMY",
            "HLT_0202",
            "HLGT_0199",
            "HISTORICAL DIAGNOSIS",
            "SURGICAL AND MEDICAL PROCEDURES",
            "",
            1,
            "SCREENING 1",
            -7,
            "2012-10-30",
            "1946",
            -16
          ],
          [
            317,
            "CDISCPILOT01",
            "MH",
            "01-701-1234",
            12,
            "",
            "ALZHEIMER'S DISEASE",
            "",
            "",
            "",
            "",
            "PRIMARY DIAGNOSIS",
            "",
            "",
            1,
            "SCREENING 1",
            -7,
            "2013-03-20",
            "2006-08-11",
            -10
          ],
          [
            318,
            "CDISCPILOT01",
            "MH",
            "01-701-1234",
            3,
            "",
            "VERBATIM_1775",
            "APPENDECTOMY",
            "APPENDICECTOMY",
            "HLT_0707",
            "HLGT_0363",
            "HISTORICAL DIAGNOSIS",
            "SURGICAL AND MEDICAL PROCEDURES",
            "",
            1,
            "SCREENING 1",
            -7,
            "2013-03-20",
            "1949",
            -10
          ],
          [
            319,
            "CDISCPILOT01",
            "MH",
            "01-701-1234",
            10,
            "",
            "VERBATIM_0747",
            "CATARACT OPERATION",
            "CATARACT OPERATION",
            "HLT_0432",
            "HLGT_0058",
            "HISTORICAL DIAGNOSIS",
            "SURGICAL AND MEDICAL PROCEDURES",
            "",
            1,
            "SCREENING 1",
            -7,
            "2013-03-20",
            "2002",
            -10
          ],
          [
            320,
            "CDISCPILOT01",
            "MH",
            "01-701-1234",
            11,
            "",
            "VERBATIM_0881",
            "CATARACT OPERATION",
            "CATARACT OPERATION",
            "HLT_0432",
            "HLGT_0058",
            "HISTORICAL DIAGNOSIS",
            "SURGICAL AND MEDICAL PROCEDURES",
            "",
            1,
            "SCREENING 1",
            -7,
            "2013-03-20",
            "2004",
            -10
          ],
          [
            321,
            "CDISCPILOT01",
            "MH",
            "01-701-1234",
            14,
            "",
            "VERBATIM_1323",
            "DETACHED RETINA REPAIR",
            "DETACHED RETINA REPAIR",
            "HLT_0345",
            "HLGT_0473",
            "HISTORICAL DIAGNOSIS",
            "SURGICAL AND MEDICAL PROCEDURES",
            "",
            1,
            "SCREENING 1",
            -7,
            "2013-03-20",
            "2009",
            -10
          ],
          [
            322,
            "CDISCPILOT01",
            "MH",
            "01-701-1234",
            15,
            "",
            "VERBATIM_0164",
            "HYPERCHOLESTEROLEMIA",
            "HYPERCHOLESTEROLAEMIA",
            "HLT_0025",
            "HLGT_0703",
            "HISTORICAL DIAGNOSIS",
            "METABOLISM AND NUTRITION DISORDERS",
            "",
            1,
            "SCREENING 1",
            -7,
            "2013-03-20",
            "2013-03-20",
            -10
          ],
          [
            323,
            "CDISCPILOT01",
            "MH",
            "01-701-1234",
            9,
            "",
            "VERBATIM_0638",
            "INGUINAL HERNIA REPAIR",
            "INGUINAL HERNIA REPAIR",
            "HLT_0320",
            "HLGT_0772",
            "HISTORICAL DIAGNOSIS",
            "SURGICAL AND MEDICAL PROCEDURES",
            "",
            1,
            "SCREENING 1",
            -7,
            "2013-03-20",
            "2001",
            -10
          ],
          [
            324,
            "CDISCPILOT01",
            "MH",
            "01-701-1234",
            6,
            "",
            "VERBATIM_0071",
            "SHOULDER OSTEOARTHRITIS",
            "OSTEOARTHRITIS",
            "HLT_0247",
            "HLGT_0462",
            "HISTORICAL DIAGNOSIS",
            "MUSCULOSKELETAL AND CONNECTIVE TISSUE DISORDERS",
            "",
            1,
            "SCREENING 1",
            -7,
            "2013-03-20",
            "2000",
            -10
          ],
          [
            325,
            "CDISCPILOT01",
            "MH",
            "01-701-1234",
            1,
            "E01",
            "VERBATIM_0507",
            "PRESBYOPIA",
            "PRESBYOPIA",
            "HLT_0230",
            "HLGT_0759",
            "SIGNIFICANT PRE-EXISTING CONDITION",
            "EYE DISORDERS",
            "MILD",
            1,
            "SCREENING 1",
            -7,
            "2013-03-20",
            "",
            -10
          ],
          [
            326,
            "CDISCPILOT01",
            "MH",
            "01-701-1234",
            13,
            "",
            "VERBATIM_1078",
            "DETACHED RETINA",
            "RETINAL DETACHMENT",
            "HLT_0490",
            "HLGT_0223",
            "HISTORICAL DIAGNOSIS",
            "EYE DISORDERS",
            "",
            1,
            "SCREENING 1",
            -7,
            "2013-03-20",
            "2009",
            -10
          ],
          [
            327,
            "CDISCPILOT01",
            "MH",
            "01-701-1234",
            5,
            "",
            "VERBATIM_0500",
            "ACROMIOPLASTY",
            "SHOULDER ARTHROPLASTY",
            "HLT_0406",
            "HLGT_0756",
            "HISTORICAL DIAGNOSIS",
            "SURGICAL AND MEDICAL PROCEDURES",
            "",
            1,
            "SCREENING 1",
            -7,
            "2013-03-20",
            "1999",
            -10
          ],
          [
            328,
            "CDISCPILOT01",
            "MH",
            "01-701-1234",
            7,
            "",
            "VERBATIM_0500",
            "ACROMIOPLASTY",
            "SHOULDER ARTHROPLASTY",
            "HLT_0406",
            "HLGT_0756",
            "HISTORICAL DIAGNOSIS",
            "SURGICAL AND MEDICAL PROCEDURES",
            "",
            1,
            "SCREENING 1",
            -7,
            "2013-03-20",
            "2000",
            -10
          ],
          [
            329,
            "CDISCPILOT01",
            "MH",
            "01-701-1234",
            4,
            "",
            "VERBATIM_0357",
            "TENDON REPAIR",
            "TENDON REPAIR",
            "HLT_0434",
            "HLGT_0246",
            "HISTORICAL DIAGNOSIS",
            "SURGICAL AND MEDICAL PROCEDURES",
            "",
            1,
            "SCREENING 1",
            -7,
            "2013-03-20",
            "1994",
            -10
          ],
          [
            330,
            "CDISCPILOT01",
            "MH",
            "01-701-1234",
            2,
            "",
            "VERBATIM_1716",
            "TONSILLECTOMY",
            "TONSILLECTOMY",
            "HLT_0202",
            "HLGT_0199",
            "HISTORICAL DIAGNOSIS",
            "SURGICAL AND MEDICAL PROCEDURES",
            "",
            1,
            "SCREENING 1",
            -7,
            "2013-03-20",
            "1949",
            -10
          ],
          [
            331,
            "CDISCPILOT01",
            "MH",
            "01-701-1234",
            8,
            "",
            "VERBATIM_0177",
            "UMBILICAL HERNIA REPAIR",
            "UMBILICAL HERNIA REPAIR",
            "HLT_0278",
            "HLGT_0377",
            "HISTORICAL DIAGNOSIS",
            "SURGICAL AND MEDICAL PROCEDURES",
            "",
            1,
            "SCREENING 1",
            -7,
            "2013-03-20",
            "2001",
            -10
          ],
          [
            332,
            "CDISCPILOT01",
            "MH",
            "01-701-1239",
            12,
            "",
            "ALZHEIMER'S DISEASE",
            "",
            "",
            "",
            "",
            "PRIMARY DIAGNOSIS",
            "",
            "",
            1,
            "SCREENING 1",
            -7,
            "2013-12-28",
            "2003-09-23",
            -14
          ],
          [
            333,
            "CDISCPILOT01",
            "MH",
            "01-701-1239",
            5,
            "E10",
            "VERBATIM_1197",
            "HAIR LOSS",
            "ALOPECIA",
            "HLT_0077",
            "HLGT_0234",
            "SIGNIFICANT PRE-EXISTING CONDITION",
            "SKIN AND SUBCUTANEOUS TISSUE DISORDERS",
            "MILD",
            1,
            "SCREENING 1",
            -7,
            "2013-12-28",
            "",
            -14
          ],
          [
            334,
            "CDISCPILOT01",
            "MH",
            "01-701-1239",
            11,
            "",
            "VERBATIM_1775",
            "APPENDECTOMY",
            "APPENDICECTOMY",
            "HLT_0707",
            "HLGT_0363",
            "HISTORICAL DIAGNOSIS",
            "SURGICAL AND MEDICAL PROCEDURES",
            "",
            1,
            "SCREENING 1",
            -7,
            "2013-12-28",
            "1980",
            -14
          ],
          [
            335,
            "CDISCPILOT01",
            "MH",
            "01-701-1239",
            13,
            "",
            "VERBATIM_0189",
            "CHEST PAIN",
            "CHEST PAIN",
            "HLT_0717",
            "HLGT_0195",
            "HISTORICAL DIAGNOSIS",
            "GENERAL DISORDERS AND ADMINISTRATION SITE CONDITIONS",
            "",
            1,
            "SCREENING 1",
            -7,
            "2013-12-28",
            "2006",
            -14
          ],
          [
            336,
            "CDISCPILOT01",
            "MH",
            "01-701-1239",
            1,
            "E07",
            "VERBATIM_0391",
            "HEARING LOSS",
            "DEAFNESS",
            "HLT_0234",
            "HLGT_0025",
            "SIGNIFICANT PRE-EXISTING CONDITION",
            "EAR AND LABYRINTH DISORDERS",
            "MILD",
            1,
            "SCREENING 1",
            -7,
            "2013-12-28",
            "",
            -14
          ],
          [
            337,
            "CDISCPILOT01",
            "MH",
            "01-701-1239",
            3,
            "E03",
            "VERBATIM_0574",
            "TYPE II DIABETES MELLITUS",
            "DIABETES MELLITUS NON-INSULIN-DEPENDENT",
            "HLT_0706",
            "HLGT_0092",
            "SIGNIFICANT PRE-EXISTING CONDITION",
            "METABOLISM AND NUTRITION DISORDERS",
            "MILD",
            1,
            "SCREENING 1",
            -7,
            "2013-12-28",
            "",
            -14
          ],
          [
            338,
            "CDISCPILOT01",
            "MH",
            "01-701-1239",
            4,
            "E02",
            "VERBATIM_0876",
            "DIZZINESS",
            "DIZZINESS",
            "HLT_0619",
            "HLGT_0751",
            "SIGNIFICANT PRE-EXISTING CONDITION",
            "NERVOUS SYSTEM DISORDERS",
            "MILD",
            1,
            "SCREENING 1",
            -7,
            "2013-12-28",
            "",
            -14
          ],
          [
            339,
            "CDISCPILOT01",
            "MH",
            "01-701-1239",
            8,
            "E05",
            "VERBATIM_1669",
            "GOUT",
            "GOUT",
            "HLT_0396",
            "HLGT_0479",
            "SIGNIFICANT PRE-EXISTING CONDITION",
            "METABOLISM AND NUTRITION DISORDERS",
            "MILD",
            1,
            "SCREENING 1",
            -7,
            "2013-12-28",
            "",
            -14
          ],
          [
            340,
            "CDISCPILOT01",
            "MH",
            "01-701-1239",
            14,
            "",
            "VERBATIM_0342",
            "HYPERTENSION",
            "HYPERTENSION",
            "HLT_0228",
            "HLGT_0476",
            "HISTORICAL DIAGNOSIS",
            "VASCULAR DISORDERS",
            "",
            1,
            "SCREENING 1",
            -7,
            "2013-12-28",
            "2006",
            -14
          ],
          [
            341,
            "CDISCPILOT01",
            "MH",
            "01-701-1239",
            15,
            "",
            "VERBATIM_1188",
            "KNEE SURGERY NOS",
            "KNEE OPERATION",
            "HLT_0319",
            "HLGT_0033",
            "HISTORICAL DIAGNOSIS",
            "SURGICAL AND MEDICAL PROCEDURES",
            "",
            1,
            "SCREENING 1",
            -7,
            "2013-12-28",
            "2008",
            -14
          ],
          [
            342,
            "CDISCPILOT01",
            "MH",
            "01-701-1239",
            7,
            "E08",
            "VERBATIM_1411",
            "MYOPIA",
            "MYOPIA",
            "HLT_0282",
            "HLGT_0271",
            "SIGNIFICANT PRE-EXISTING CONDITION",
            "EYE DISORDERS",
            "MILD",
            1,
            "SCREENING 1",
            -7,
            "2013-12-28",
            "",
            -14
          ],
          [
            343,
            "CDISCPILOT01",
            "MH",
            "01-701-1239",
            9,
            "E01",
            "VERBATIM_1760",
            "EDEMA",
            "OEDEMA",
            "HLT_0656",
            "HLGT_0036",
            "SIGNIFICANT PRE-EXISTING CONDITION",
            "GENERAL DISORDERS AND ADMINISTRATION SITE CONDITIONS",
            "MILD",
            1,
            "SCREENING 1",
            -7,
            "2013-12-28",
            "",
            -14
          ],
          [
            344,
            "CDISCPILOT01",
            "MH",
            "01-701-1239",
            2,
            "E04",
            "VERBATIM_0567",
            "TINGLING FEET/HANDS",
            "PARAESTHESIA",
            "HLT_0481",
            "HLGT_0534",
            "SIGNIFICANT PRE-EXISTING CONDITION",
            "NERVOUS SYSTEM DISORDERS",
            "MILD",
            1,
            "SCREENING 1",
            -7,
            "2013-12-28",
            "",
            -14
          ],
          [
            345,
            "CDISCPILOT01",
            "MH",
            "01-701-1239",
            6,
            "E06",
            "VERBATIM_1316",
            "POLYARTHRITIS",
            "POLYARTHRITIS",
            "HLT_0134",
            "HLGT_0167",
            "SIGNIFICANT PRE-EXISTING CONDITION",
            "MUSCULOSKELETAL AND CONNECTIVE TISSUE DISORDERS",
            "MILD",
            1,
            "SCREENING 1",
            -7,
            "2013-12-28",
            "",
            -14
          ],
          [
            346,
            "CDISCPILOT01",
            "MH",
            "01-701-1239",
            10,
            "",
            "VERBATIM_0236",
            "TOOTH EXTRACTION NOS",
            "TOOTH EXTRACTION",
            "HLT_0209",
            "HLGT_0762",
            "HISTORICAL DIAGNOSIS",
            "SURGICAL AND MEDICAL PROCEDURES",
            "",
            1,
            "SCREENING 1",
            -7,
            "2013-12-28",
            "1979",
            -14
          ],
          [
            347,
            "CDISCPILOT01",
            "MH",
            "01-701-1275",
            4,
            "",
            "ALZHEIMER'S DISEASE",
            "",
            "",
            "",
            "",
            "PRIMARY DIAGNOSIS",
            "",
            "",
            1,
            "SCREENING 1",
            -7,
            "2014-01-25",
            "2011-09-17",
            -13
          ],
          [
            348,
            "CDISCPILOT01",
            "MH",
            "01-701-1275",
            2,
            "E02",
            "VERBATIM_0301",
            "HEADACHE",
            "HEADACHE",
            "HLT_0064",
            "HLGT_0344",
            "SIGNIFICANT PRE-EXISTING CONDITION",
            "NERVOUS SYSTEM DISORDERS",
            "MILD",
            1,
            "SCREENING 1",
            -7,
            "2014-01-25",
            "",
            -13
          ],
          [
            349,
            "CDISCPILOT01",
            "MH",
            "01-701-1275",
            3,
            "E03",
            "VERBATIM_1683",
            "HYPEROPIA",
            "HYPERMETROPIA",
            "HLT_0546",
            "HLGT_0646",
            "SIGNIFICANT PRE-EXISTING CONDITION",
            "EYE DISORDERS",
            "MILD",
            1,
            "SCREENING 1",
            -7,
            "2014-01-25",
            "",
            -13
          ],
          [
            350,
            "CDISCPILOT01",
            "MH",
            "01-701-1275",
            1,
            "E01",
            "VERBATIM_0021",
            "NOCTURIA",
            "NOCTURIA",
            "HLT_0509",
            "HLGT_0605",
            "SIGNIFICANT PRE-EXISTING CONDITION",
            "RENAL AND URINARY DISORDERS",
            "MILD",
            1,
            "SCREENING 1",
            -7,
            "2014-01-25",
            "",
            -13
          ],
          [
            351,
            "CDISCPILOT01",
            "MH",
            "01-701-1287",
            4,
            "",
            "ALZHEIMER'S DISEASE",
            "",
            "",
            "",
            "",
            "PRIMARY DIAGNOSIS",
            "",
            "",
            1,
            "SCREENING 1",
            -7,
            "2014-01-17",
            "2009-10-30",
            -8
          ],
          [
            352,
            "CDISCPILOT01",
            "MH",
            "01-701-1287",
            5,
            "",
            "VERBATIM_1280",
            "ANXIETY",
            "ANXIETY",
            "HLT_0559",
            "HLGT_0570",
            "HISTORICAL DIAGNOSIS",
            "PSYCHIATRIC DISORDERS",
            "",
            1,
            "SCREENING 1",
            -7,
            "2014-01-17",
            "2010",
            -8
          ],
          [
            353,
            "CDISCPILOT01",
            "MH",
            "01-701-1287",
            1,
            "E01",
            "VERBATIM_1532",
            "MYOPIA",
            "MYOPIA",
            "HLT_0282",
            "HLGT_0271",
            "SIGNIFICANT PRE-EXISTING CONDITION",
            "EYE DISORDERS",
            "MILD",
            1,
            "SCREENING 1",
            -7,
            "2014-01-17",
            "",
            -8
          ],
          [
            354,
            "CDISCPILOT01",
            "MH",
            "01-701-1287",
            3,
            "",
            "VERBATIM_1763",
            "TUBAL LIGATION",
            "TUBAL LIGATION",
            "HLT_0730",
            "HLGT_0608",
            "HISTORICAL DIAGNOSIS",
            "SURGICAL AND MEDICAL PROCEDURES",
            "",
            1,
            "SCREENING 1",
            -7,
            "2014-01-17",
            "1991",
            -8
          ],
          [
            355,
            "CDISCPILOT01",
            "MH",
            "01-701-1287",
            2,
            "",
            "VERBATIM_0526",
            "TUBERCULOSIS",
            "TUBERCULOSIS",
            "HLT_0344",
            "HLGT_0774",
            "HISTORICAL DIAGNOSIS",
            "INFECTIONS AND INFESTATIONS",
            "",
            1,
            "SCREENING 1",
            -7,
            "2014-01-17",
            "1979",
            -8
          ],
          [
            356,
            "CDISCPILOT01",
            "MH",
            "01-701-1294",
            10,
            "",
            "ALZHEIMER'S DISEASE",
            "",
            "",
            "",
            "",
            "PRIMARY DIAGNOSIS",
            "",
            "",
            1,
            "SCREENING 1",
            -7,
            "2013-03-17",
            "2011-09-09",
            -7
          ],
          [
            357,
            "CDISCPILOT01",
            "MH",
            "01-701-1294",
            11,
            "",
            "VERBATIM_1380",
            "ARTHROSCOPY R KNEE",
            "ARTHROSCOPY",
            "HLT_0048",
            "HLGT_0296",
            "HISTORICAL DIAGNOSIS",
            "INVESTIGATIONS",
            "",
            1,
            "SCREENING 1",
            -7,
            "2013-03-17",
            "2012-12",
            -7
          ],
          [
            358,
            "CDISCPILOT01",
            "MH",
            "01-701-1294",
            8,
            "",
            "VERBATIM_0721",
            "DUODENAL ULCER",
            "DUODENAL ULCER",
            "HLT_0322",
            "HLGT_0349",
            "HISTORICAL DIAGNOSIS",
            "GASTROINTESTINAL DISORDERS",
            "",
            1,
            "SCREENING 1",
            -7,
            "2013-03-17",
            "1976",
            -7
          ],
          [
            359,
            "CDISCPILOT01",
            "MH",
            "01-701-1294",
            7,
            "",
            "VERBATIM_1187",
            "HEMORRHOIDECTOMY",
            "HAEMORRHOID OPERATION",
            "HLT_0300",
            "HLGT_0468",
            "HISTORICAL DIAGNOSIS",
            "SURGICAL AND MEDICAL PROCEDURES",
            "",
            1,
            "SCREENING 1",
            -7,
            "2013-03-17",
            "1966",
            -7
          ],
          [
            360,
            "CDISCPILOT01",
            "MH",
            "01-701-1294",
            1,
            "E01",
            "VERBATIM_0162",
            "GENITAL HERPES",
            "HERPES SIMPLEX",
            "HLT_0715",
            "HLGT_0438",
            "SIGNIFICANT PRE-EXISTING CONDITION",
            "INFECTIONS AND INFESTATIONS",
            "MILD",
            1,
            "SCREENING 1",
            -7,
            "2013-03-17",
            "",
            -7
          ],
          [
            361,
            "CDISCPILOT01",
            "MH",
            "01-701-1294",
            9,
            "",
            "VERBATIM_0739",
            "KIDNEY STONES",
            "NEPHROLITHIASIS",
            "HLT_0439",
            "HLGT_0546",
            "HISTORICAL DIAGNOSIS",
            "RENAL AND URINARY DISORDERS",
            "",
            1,
            "SCREENING 1",
            -7,
            "2013-03-17",
            "1976",
            -7
          ],
          [
            362,
            "CDISCPILOT01",
            "MH",
            "01-701-1294",
            4,
            "E02",
            "VERBATIM_1491",
            "POLYARTHRITIS",
            "POLYARTHRITIS",
            "HLT_0134",
            "HLGT_0167",
            "SIGNIFICANT PRE-EXISTING CONDITION",
            "MUSCULOSKELETAL AND CONNECTIVE TISSUE DISORDERS",
            "MILD",
            1,
            "SCREENING 1",
            -7,
            "2013-03-17",
            "",
            -7
          ],
          [
            363,
            "CDISCPILOT01",
            "MH",
            "01-701-1294",
            5,
            "E04",
            "VERBATIM_1769",
            "SINUSITIS",
            "SINUSITIS",
            "HLT_0262",
            "HLGT_0249",
            "SIGNIFICANT PRE-EXISTING CONDITION",
            "INFECTIONS AND INFESTATIONS",
            "MILD",
            1,
            "SCREENING 1",
            -7,
            "2013-03-17",
            "",
            -7
          ],
          [
            364,
            "CDISCPILOT01",
            "MH",
            "01-701-1294",
            3,
            "E03",
            "VERBATIM_1063",
            "ARTHRITIS OF NECK",
            "SPONDYLITIS",
            "HLT_0418",
            "HLGT_0708",
            "SIGNIFICANT PRE-EXISTING CONDITION",
            "MUSCULOSKELETAL AND CONNECTIVE TISSUE DISORDERS",
            "MILD",
            1,
            "SCREENING 1",
            -7,
            "2013-03-17",
            "",
            -7
          ],
          [
            365,
            "CDISCPILOT01",
            "MH",
            "01-701-1294",
            6,
            "",
            "VERBATIM_1716",
            "TONSILLECTOMY",
            "TONSILLECTOMY",
            "HLT_0202",
            "HLGT_0199",
            "HISTORICAL DIAGNOSIS",
            "SURGICAL AND MEDICAL PROCEDURES",
            "",
            1,
            "SCREENING 1",
            -7,
            "2013-03-17",
            "1946",
            -7
          ],
          [
            366,
            "CDISCPILOT01",
            "MH",
            "01-701-1294",
            2,
            "E05",
            "VERBATIM_0464",
            "VISION DECREASED",
            "VISUAL ACUITY REDUCED",
            "HLT_0421",
            "HLGT_0524",
            "SIGNIFICANT PRE-EXISTING CONDITION",
            "EYE DISORDERS",
            "MILD",
            1,
            "SCREENING 1",
            -7,
            "2013-03-17",
            "",
            -7
          ],
          [
            367,
            "CDISCPILOT01",
            "MH",
            "01-701-1302",
            20,
            "",
            "ALZHEIMER'S DISEASE",
            "",
            "",
            "",
            "",
            "PRIMARY DIAGNOSIS",
            "",
            "",
            1,
            "SCREENING 1",
            -7,
            "2013-08-20",
            "2007-02-09",
            -9
          ],
          [
            368,
            "CDISCPILOT01",
            "MH",
            "01-701-1302",
            15,
            "",
            "VERBATIM_1463",
            "ANKLE FRACTURE",
            "ANKLE FRACTURE",
            "HLT_0208",
            "HLGT_0252",
            "HISTORICAL DIAGNOSIS",
            "INJURY, POISONING AND PROCEDURAL COMPLICATIONS",
            "",
            1,
            "SCREENING 1",
            -7,
            "2013-08-20",
            "1967",
            -9
          ],
          [
            369,
            "CDISCPILOT01",
            "MH",
            "01-701-1302",
            12,
            "E06",
            "VERBATIM_1781",
            "LOW BACK PAIN",
            "BACK PAIN",
            "HLT_0115",
            "HLGT_0508",
            "SIGNIFICANT PRE-EXISTING CONDITION",
            "MUSCULOSKELETAL AND CONNECTIVE TISSUE DISORDERS",
            "MILD",
            1,
            "SCREENING 1",
            -7,
            "2013-08-20",
            "",
            -9
          ],
          [
            370,
            "CDISCPILOT01",
            "MH",
            "01-701-1302",
            9,
            "E12",
            "VERBATIM_1348",
            "ENLARGED PROSTATE",
            "BENIGN PROSTATIC HYPERPLASIA",
            "HLT_0215",
            "HLGT_0568",
            "SIGNIFICANT PRE-EXISTING CONDITION",
            "REPRODUCTIVE SYSTEM AND BREAST DISORDERS",
            "MILD",
            1,
            "SCREENING 1",
            -7,
            "2013-08-20",
            "",
            -9
          ],
          [
            371,
            "CDISCPILOT01",
            "MH",
            "01-701-1302",
            4,
            "E11",
            "VERBATIM_0443",
            "CONSTIPATION",
            "CONSTIPATION",
            "HLT_0402",
            "HLGT_0635",
            "SIGNIFICANT PRE-EXISTING CONDITION",
            "GASTROINTESTINAL DISORDERS",
            "MILD",
            1,
            "SCREENING 1",
            -7,
            "2013-08-20",
            "",
            -9
          ],
          [
            372,
            "CDISCPILOT01",
            "MH",
            "01-701-1302",
            3,
            "E08",
            "VERBATIM_0391",
            "HEARING LOSS",
            "DEAFNESS",
            "HLT_0234",
            "HLGT_0025",
            "SIGNIFICANT PRE-EXISTING CONDITION",
            "EAR AND LABYRINTH DISORDERS",
            "MILD",
            1,
            "SCREENING 1",
            -7,
            "2013-08-20",
            "",
            -9
          ],
          [
            373,
            "CDISCPILOT01",
            "MH",
            "01-701-1302",
            7,
            "E10",
            "VERBATIM_1022",
            "DENTURE WEARER",
            "DENTURE WEARER",
            "HLT_0246",
            "HLGT_0763",
            "SIGNIFICANT PRE-EXISTING CONDITION",
            "SOCIAL CIRCUMSTANCES",
            "MILD",
            1,
            "SCREENING 1",
            -7,
            "2013-08-20",
            "",
            -9
          ],
          [
            374,
            "CDISCPILOT01",
            "MH",
            "01-701-1302",
            11,
            "E09",
            "VERBATIM_1631",
            "DENTURE WEARER",
            "DENTURE WEARER",
            "HLT_0246",
            "HLGT_0763",
            "SIGNIFICANT PRE-EXISTING CONDITION",
            "SOCIAL CIRCUMSTANCES",
            "MILD",
            1,
            "SCREENING 1",
            -7,
            "2013-08-20",
            "",
            -9
          ],
          [
            375,
            "CDISCPILOT01",
            "MH",
            "01-701-1302",
            16,
            "",
            "VERBATIM_1475",
            "GONORRHEA",
            "GONORRHOEA",
            "HLT_0638",
            "HLGT_0171",
            "HISTORICAL DIAGNOSIS",
            "INFECTIONS AND INFESTATIONS",
            "",
            1,
            "SCREENING 1",
            -7,
            "2013-08-20",
            "1973",
            -9
          ],
          [
            376,
            "CDISCPILOT01",
            "MH",
            "01-701-1302",
            17,
            "",
            "VERBATIM_1768",
            "INTERNAL HEMORRHOIDS",
            "HAEMORRHOIDS",
            "HLT_0681",
            "HLGT_0485",
            "HISTORICAL DIAGNOSIS",
            "GASTROINTESTINAL DISORDERS",
            "",
            1,
            "SCREENING 1",
            -7,
            "2013-08-20",
            "1993",
            -9
          ],
          [
            377,
            "CDISCPILOT01",
            "MH",
            "01-701-1302",
            6,
            "E02",
            "VERBATIM_0929",
            "HEADACHE",
            "HEADACHE",
            "HLT_0064",
            "HLGT_0344",
            "SIGNIFICANT PRE-EXISTING CONDITION",
            "NERVOUS SYSTEM DISORDERS",
            "MILD",
            1,
            "SCREENING 1",
            -7,
            "2013-08-20",
            "",
            -9
          ],
          [
            378,
            "CDISCPILOT01",
            "MH",
            "01-701-1302",
            25,
            "",
            "VERBATIM_1438",
            "HERNIA REPAIR",
            "HERNIA REPAIR",
            "HLT_0766",
            "HLGT_0696",
            "HISTORICAL DIAGNOSIS",
            "SURGICAL AND MEDICAL PROCEDURES",
            "",
            1,
            "SCREENING 1",
            -7,
            "2013-08-20",
            "2012-08",
            -9
          ],
          [
            379,
            "CDISCPILOT01",
            "MH",
            "01-701-1302",
            5,
            "E04",
            "VERBATIM_0894",
            "HERPES LESION INTRA-ORAL",
            "HERPES SIMPLEX",
            "HLT_0715",
            "HLGT_0438",
            "SIGNIFICANT PRE-EXISTING CONDITION",
            "INFECTIONS AND INFESTATIONS",
            "MILD",
            1,
            "SCREENING 1",
            -7,
            "2013-08-20",
            "",
            -9
          ],
          [
            380,
            "CDISCPILOT01",
            "MH",
            "01-701-1302",
            18,
            "",
            "VERBATIM_1233",
            "INGUINAL HERNIA REPAIR",
            "INGUINAL HERNIA REPAIR",
            "HLT_0320",
            "HLGT_0772",
            "HISTORICAL DIAGNOSIS",
            "SURGICAL AND MEDICAL PROCEDURES",
            "",
            1,
            "SCREENING 1",
            -7,
            "2013-08-20",
            "1995",
            -9
          ],
          [
            381,
            "CDISCPILOT01",
            "MH",
            "01-701-1302",
            2,
            "E01",
            "VERBATIM_0148",
            "OPHTHALMIC MIGRAINE",
            "MIGRAINE WITH AURA",
            "HLT_0029",
            "HLGT_0710",
            "SIGNIFICANT PRE-EXISTING CONDITION",
            "NERVOUS SYSTEM DISORDERS",
            "MILD",
            1,
            "SCREENING 1",
            -7,
            "2013-08-20",
            "",
            -9
          ],
          [
            382,
            "CDISCPILOT01",
            "MH",
            "01-701-1302",
            23,
            "",
            "VERBATIM_0558",
            "MUSCLE PAIN",
            "MYALGIA",
            "HLT_0700",
            "HLGT_0121",
            "HISTORICAL DIAGNOSIS",
            "MUSCULOSKELETAL AND CONNECTIVE TISSUE DISORDERS",
            "",
            1,
            "SCREENING 1",
            -7,
            "2013-08-20",
            "2012-04-04",
            -9
          ],
          [
            383,
            "CDISCPILOT01",
            "MH",
            "01-701-1302",
            10,
            "E07",
            "VERBATIM_1532",
            "MYOPIA",
            "MYOPIA",
            "HLT_0282",
            "HLGT_0271",
            "SIGNIFICANT PRE-EXISTING CONDITION",
            "EYE DISORDERS",
            "MILD",
            1,
            "SCREENING 1",
            -7,
            "2013-08-20",
            "",
            -9
          ],
          [
            384,
            "CDISCPILOT01",
            "MH",
            "01-701-1302",
            22,
            "",
            "VERBATIM_1747",
            "PAINFUL DEFECATION",
            "PAINFUL DEFAECATION",
            "HLT_0379",
            "HLGT_0315",
            "HISTORICAL DIAGNOSIS",
            "GASTROINTESTINAL DISORDERS",
            "",
            1,
            "SCREENING 1",
            -7,
            "2013-08-20",
            "2012-03-15",
            -9
          ],
          [
            385,
            "CDISCPILOT01",
            "MH",
            "01-701-1302",
            14,
            "",
            "VERBATIM_0919",
            "PNEUMONIA",
            "PNEUMONIA",
            "HLT_0251",
            "HLGT_0671",
            "HISTORICAL DIAGNOSIS",
            "INFECTIONS AND INFESTATIONS",
            "",
            1,
            "SCREENING 1",
            -7,
            "2013-08-20",
            "1966",
            -9
          ],
          [
            386,
            "CDISCPILOT01",
            "MH",
            "01-701-1302",
            21,
            "",
            "VERBATIM_0123",
            "BLEEDING RECTAL",
            "RECTAL HAEMORRHAGE",
            "HLT_0353",
            "HLGT_0755",
            "HISTORICAL DIAGNOSIS",
            "GASTROINTESTINAL DISORDERS",
            "",
            1,
            "SCREENING 1",
            -7,
            "2013-08-20",
            "2012-03-15",
            -9
          ],
          [
            387,
            "CDISCPILOT01",
            "MH",
            "01-701-1302",
            13,
            "",
            "VERBATIM_1716",
            "TONSILLECTOMY",
            "TONSILLECTOMY",
            "HLT_0202",
            "HLGT_0199",
            "HISTORICAL DIAGNOSIS",
            "SURGICAL AND MEDICAL PROCEDURES",
            "",
            1,
            "SCREENING 1",
            -7,
            "2013-08-20",
            "1956",
            -9
          ],
          [
            388,
            "CDISCPILOT01",
            "MH",
            "01-701-1302",
            19,
            "",
            "VERBATIM_1738",
