{
  "clinicalData": {
    "studyOID": "UpdatedCDISCPILOT.CDISC SDTM.3.2",
    "metaDataVersionOID": "MDV.UpdatedCDISCPILOT.CDISC SDTM.3.2",
    "itemGroupData": {
      "IG.QSHI": {
        "records": 3302,
        "name": "QSHI",
        "label": "Questionnaires",
        "items": [
          {
            "OID": "ITEMGROUPDATASEQ",
            "name": "ITEMGROUPDATASEQ",
            "label": "Record identifier",
            "type": "integer"
          },
          {
            "OID": "IT.QSHI.STUDYID",
            "name": "STUDYID",
            "label": "Study Identifier",
            "type": "string",
            "length": 12
          },
          {
            "OID": "IT.QSHI.DOMAIN",
            "name": "DOMAIN",
            "label": "Domain Abbreviation",
            "type": "string",
            "length": 2
          },
          {
            "OID": "IT.QSHI.USUBJID",
            "name": "USUBJID",
            "label": "Unique Subject Identifier",
            "type": "string",
            "length": 11
          },
          {
            "OID": "IT.QSHI.QSSEQ",
            "name": "QSSEQ",
            "label": "Sequence Number",
            "type": "integer",
            "length": 8
          },
          {
            "OID": "IT.QSHI.QSTESTCD",
            "name": "QSTESTCD",
            "label": "Question Short Name",
            "type": "string",
            "length": 8
          },
          {
            "OID": "IT.QSHI.QSTEST",
            "name": "QSTEST",
            "label": "Question Name",
            "type": "string",
            "length": 40
          },
          {
            "OID": "IT.QSHI.QSCAT",
            "name": "QSCAT",
            "label": "Category of Question",
            "type": "string",
            "length": 70
          },
          {
            "OID": "IT.QSHI.QSSCAT",
            "name": "QSSCAT",
            "label": "Subcategory for Question",
            "type": "string",
            "length": 26
          },
          {
            "OID": "IT.QSHI.QSORRES",
            "name": "QSORRES",
            "label": "Finding in Original Units",
            "type": "string",
            "length": 20
          },
          {
            "OID": "IT.QSHI.QSORRESU",
            "name": "QSORRESU",
            "label": "Original Units",
            "type": "string",
            "length": 7
          },
          {
            "OID": "IT.QSHI.QSSTRESC",
            "name": "QSSTRESC",
            "label": "Character Result/Finding in Std Format",
            "type": "string",
            "length": 4
          },
          {
            "OID": "IT.QSHI.QSSTRESN",
            "name": "QSSTRESN",
            "label": "Numeric Finding in Standard Units",
            "type": "integer",
            "length": 8
          },
          {
            "OID": "IT.QSHI.QSSTRESU",
            "name": "QSSTRESU",
            "label": "Standard Units",
            "type": "string",
            "length": 7
          },
          {
            "OID": "IT.QSHI.QSSTAT",
            "name": "QSSTAT",
            "label": "Completion Status",
            "type": "string",
            "length": 8
          },
          {
            "OID": "IT.QSHI.QSREASND",
            "name": "QSREASND",
            "label": "Reason Not Performed",
            "type": "string",
            "length": 17
          },
          {
            "OID": "IT.QSHI.QSBLFL",
            "name": "QSBLFL",
            "label": "Baseline Flag",
            "type": "string",
            "length": 1
          },
          {
            "OID": "IT.QSHI.QSDRVFL",
            "name": "QSDRVFL",
            "label": "Derived Flag",
            "type": "string",
            "length": 1
          },
          {
            "OID": "IT.QSHI.VISITNUM",
            "name": "VISITNUM",
            "label": "Visit Number",
            "type": "float",
            "length": 8
          },
          {
            "OID": "IT.QSHI.VISIT",
            "name": "VISIT",
            "label": "Visit Name",
            "type": "string",
            "length": 19
          },
          {
            "OID": "IT.QSHI.VISITDY",
            "name": "VISITDY",
            "label": "Planned Study Day of Visit",
            "type": "integer",
            "length": 8
          },
          {
            "OID": "IT.QSHI.EPOCH",
            "name": "EPOCH",
            "label": "Epoch",
            "type": "string",
            "length": 9
          },
          {
            "OID": "IT.QSHI.QSDTC",
            "name": "QSDTC",
            "label": "Date/Time of Finding",
            "type": "string",
            "length": 10
          },
          {
            "OID": "IT.QSHI.QSDY",
            "name": "QSDY",
            "label": "Study Day of Finding",
            "type": "integer",
            "length": 8
          }
        ],
        "itemData": [
          [
            1,
            "CDISCPILOT01",
            "QS",
            "01-701-1015",
            1001,
            "MHITM01",
            "ABRUPT ONSET",
            "MHIS-NACC",
            "",
            "ABSENT",
            "",
            "0",
            0,
            "",
            "",
            "",
            "",
            "",
            1,
            "SCREENING 1",
            -7,
            "TREATMENT",
            "2013-12-26",
            -7
          ],
          [
            2,
            "CDISCPILOT01",
            "QS",
            "01-701-1015",
            1002,
            "MHITM02",
            "STEPWISE DETERIORATION",
            "MHIS-NACC",
            "",
            "ABSENT",
            "",
            "0",
            0,
            "",
            "",
            "",
            "",
            "",
            1,
            "SCREENING 1",
            -7,
            "TREATMENT",
            "2013-12-26",
            -7
          ],
          [
            3,
            "CDISCPILOT01",
            "QS",
            "01-701-1015",
            1003,
            "MHITM03",
            "FLUCTUATING COURSE",
            "MHIS-NACC",
            "",
            "ABSENT",
            "",
            "0",
            0,
            "",
            "",
            "",
            "",
            "",
            1,
            "SCREENING 1",
            -7,
            "TREATMENT",
            "2013-12-26",
            -7
          ],
          [
            4,
            "CDISCPILOT01",
            "QS",
            "01-701-1015",
            1004,
            "MHITM04",
            "NOCTURNAL CONFUSION",
            "MHIS-NACC",
            "",
            "ABSENT",
            "",
            "0",
            0,
            "",
            "",
            "",
            "",
            "",
            1,
            "SCREENING 1",
            -7,
            "TREATMENT",
            "2013-12-26",
            -7
          ],
          [
            5,
            "CDISCPILOT01",
            "QS",
            "01-701-1015",
            1005,
            "MHITM05",
            "RELATIVE PRESERVATION OF PERSONALITY",
            "MHIS-NACC",
            "",
            "ABSENT",
            "",
            "0",
            0,
            "",
            "",
            "",
            "",
            "",
            1,
            "SCREENING 1",
            -7,
            "TREATMENT",
            "2013-12-26",
            -7
          ],
          [
            6,
            "CDISCPILOT01",
            "QS",
            "01-701-1015",
            1006,
            "MHITM06",
            "DEPRESSION",
            "MHIS-NACC",
            "",
            "ABSENT",
            "",
            "0",
            0,
            "",
            "",
            "",
            "",
            "",
            1,
            "SCREENING 1",
            -7,
            "TREATMENT",
            "2013-12-26",
            -7
          ],
          [
            7,
            "CDISCPILOT01",
            "QS",
            "01-701-1015",
            1007,
            "MHITM07",
            "SOMATIC COMPLAINTS",
            "MHIS-NACC",
            "",
            "PRESENT",
            "",
            "1",
            1,
            "",
            "",
            "",
            "",
            "",
            1,
            "SCREENING 1",
            -7,
            "TREATMENT",
            "2013-12-26",
            -7
          ],
          [
            8,
            "CDISCPILOT01",
            "QS",
            "01-701-1015",
            1008,
            "MHITM08",
            "EMOTIONAL INCONTINENCE",
            "MHIS-NACC",
            "",
            "ABSENT",
            "",
            "0",
            0,
            "",
            "",
            "",
            "",
            "",
            1,
            "SCREENING 1",
            -7,
            "TREATMENT",
            "2013-12-26",
            -7
          ],
          [
            9,
            "CDISCPILOT01",
            "QS",
            "01-701-1015",
            1009,
            "MHITM09",
            "HISTORY OF HYPERTENSION",
            "MHIS-NACC",
            "",
            "ABSENT",
            "",
            "0",
            0,
            "",
            "",
            "",
            "",
            "",
            1,
            "SCREENING 1",
            -7,
            "TREATMENT",
            "2013-12-26",
            -7
          ],
          [
            10,
            "CDISCPILOT01",
            "QS",
            "01-701-1015",
            1010,
            "MHITM10",
            "HISTORY OF STROKES",
            "MHIS-NACC",
            "",
            "ABSENT",
            "",
            "0",
            0,
            "",
            "",
            "",
            "",
            "",
            1,
            "SCREENING 1",
            -7,
            "TREATMENT",
            "2013-12-26",
            -7
          ],
          [
            11,
            "CDISCPILOT01",
            "QS",
            "01-701-1015",
            1011,
            "MHITM11",
            "EVIDENCE OF ASSOCIATED ATHEROSCLEROSIS",
            "MHIS-NACC",
            "",
            "ABSENT",
            "",
            "0",
            0,
            "",
            "",
            "",
            "",
            "",
            1,
            "SCREENING 1",
            -7,
            "TREATMENT",
            "2013-12-26",
            -7
          ],
          [
            12,
            "CDISCPILOT01",
            "QS",
            "01-701-1015",
            1012,
            "MHITM12",
            "FOCAL NEUROLOGICAL SYMPTOMS",
            "MHIS-NACC",
            "",
            "ABSENT",
            "",
            "0",
            0,
            "",
            "",
            "",
            "",
            "",
            1,
            "SCREENING 1",
            -7,
            "TREATMENT",
            "2013-12-26",
            -7
          ],
          [
            13,
            "CDISCPILOT01",
            "QS",
            "01-701-1015",
            1013,
            "MHITM13",
            "FOCAL NEUROLOGICAL SIGNS",
            "MHIS-NACC",
            "",
            "ABSENT",
            "",
            "0",
            0,
            "",
            "",
            "",
            "",
            "",
            1,
            "SCREENING 1",
            -7,
            "TREATMENT",
            "2013-12-26",
            -7
          ],
          [
            14,
            "CDISCPILOT01",
            "QS",
            "01-701-1023",
            1001,
            "MHITM01",
            "ABRUPT ONSET",
            "MHIS-NACC",
            "",
            "ABSENT",
            "",
            "0",
            0,
            "",
            "",
            "",
            "",
            "",
            1,
            "SCREENING 1",
            -7,
            "TREATMENT",
            "2012-07-22",
            -14
          ],
          [
            15,
            "CDISCPILOT01",
            "QS",
            "01-701-1023",
            1002,
            "MHITM02",
            "STEPWISE DETERIORATION",
            "MHIS-NACC",
            "",
            "ABSENT",
            "",
            "0",
            0,
            "",
            "",
            "",
            "",
            "",
            1,
            "SCREENING 1",
            -7,
            "TREATMENT",
            "2012-07-22",
            -14
          ],
          [
            16,
            "CDISCPILOT01",
            "QS",
            "01-701-1023",
            1003,
            "MHITM03",
            "FLUCTUATING COURSE",
            "MHIS-NACC",
            "",
            "ABSENT",
            "",
            "0",
            0,
            "",
            "",
            "",
            "",
            "",
            1,
            "SCREENING 1",
            -7,
            "TREATMENT",
            "2012-07-22",
            -14
          ],
          [
            17,
            "CDISCPILOT01",
            "QS",
            "01-701-1023",
            1004,
            "MHITM04",
            "NOCTURNAL CONFUSION",
            "MHIS-NACC",
            "",
            "ABSENT",
            "",
            "0",
            0,
            "",
            "",
            "",
            "",
            "",
            1,
            "SCREENING 1",
            -7,
            "TREATMENT",
            "2012-07-22",
            -14
          ],
          [
            18,
            "CDISCPILOT01",
            "QS",
            "01-701-1023",
            1005,
            "MHITM05",
            "RELATIVE PRESERVATION OF PERSONALITY",
            "MHIS-NACC",
            "",
            "ABSENT",
            "",
            "0",
            0,
            "",
            "",
            "",
            "",
            "",
            1,
            "SCREENING 1",
            -7,
            "TREATMENT",
            "2012-07-22",
            -14
          ],
          [
            19,
            "CDISCPILOT01",
            "QS",
            "01-701-1023",
            1006,
            "MHITM06",
            "DEPRESSION",
            "MHIS-NACC",
            "",
            "ABSENT",
            "",
            "0",
            0,
            "",
            "",
            "",
            "",
            "",
            1,
            "SCREENING 1",
            -7,
            "TREATMENT",
            "2012-07-22",
            -14
          ],
          [
            20,
            "CDISCPILOT01",
            "QS",
            "01-701-1023",
            1007,
            "MHITM07",
            "SOMATIC COMPLAINTS",
            "MHIS-NACC",
            "",
            "PRESENT",
            "",
            "1",
            1,
            "",
            "",
            "",
            "",
            "",
            1,
            "SCREENING 1",
            -7,
            "TREATMENT",
            "2012-07-22",
            -14
          ],
          [
            21,
            "CDISCPILOT01",
            "QS",
            "01-701-1023",
            1008,
            "MHITM08",
            "EMOTIONAL INCONTINENCE",
            "MHIS-NACC",
            "",
            "ABSENT",
            "",
            "0",
            0,
            "",
            "",
            "",
            "",
            "",
            1,
            "SCREENING 1",
            -7,
            "TREATMENT",
            "2012-07-22",
            -14
          ],
          [
            22,
            "CDISCPILOT01",
            "QS",
            "01-701-1023",
            1009,
            "MHITM09",
            "HISTORY OF HYPERTENSION",
            "MHIS-NACC",
            "",
            "ABSENT",
            "",
            "0",
            0,
            "",
            "",
            "",
            "",
            "",
            1,
            "SCREENING 1",
            -7,
            "TREATMENT",
            "2012-07-22",
            -14
          ],
          [
            23,
            "CDISCPILOT01",
            "QS",
            "01-701-1023",
            1010,
            "MHITM10",
            "HISTORY OF STROKES",
            "MHIS-NACC",
            "",
            "ABSENT",
            "",
            "0",
            0,
            "",
            "",
            "",
            "",
            "",
            1,
            "SCREENING 1",
            -7,
            "TREATMENT",
            "2012-07-22",
            -14
          ],
          [
            24,
            "CDISCPILOT01",
            "QS",
            "01-701-1023",
            1011,
            "MHITM11",
            "EVIDENCE OF ASSOCIATED ATHEROSCLEROSIS",
            "MHIS-NACC",
            "",
            "ABSENT",
            "",
            "0",
            0,
            "",
            "",
            "",
            "",
            "",
            1,
            "SCREENING 1",
            -7,
            "TREATMENT",
            "2012-07-22",
            -14
          ],
          [
            25,
            "CDISCPILOT01",
            "QS",
            "01-701-1023",
            1012,
            "MHITM12",
            "FOCAL NEUROLOGICAL SYMPTOMS",
            "MHIS-NACC",
            "",
            "ABSENT",
            "",
            "0",
            0,
            "",
            "",
            "",
            "",
            "",
            1,
            "SCREENING 1",
            -7,
            "TREATMENT",
            "2012-07-22",
            -14
          ],
          [
            26,
            "CDISCPILOT01",
            "QS",
            "01-701-1023",
            1013,
            "MHITM13",
            "FOCAL NEUROLOGICAL SIGNS",
            "MHIS-NACC",
            "",
            "ABSENT",
            "",
            "0",
            0,
            "",
            "",
            "",
            "",
            "",
            1,
            "SCREENING 1",
            -7,
            "TREATMENT",
            "2012-07-22",
            -14
          ],
          [
            27,
            "CDISCPILOT01",
            "QS",
            "01-701-1028",
            1001,
            "MHITM01",
            "ABRUPT ONSET",
            "MHIS-NACC",
            "",
            "ABSENT",
            "",
            "0",
            0,
            "",
            "",
            "",
            "",
            "",
            1,
            "SCREENING 1",
            -7,
            "TREATMENT",
            "2013-07-11",
            -8
          ],
          [
            28,
            "CDISCPILOT01",
            "QS",
            "01-701-1028",
            1002,
            "MHITM02",
            "STEPWISE DETERIORATION",
            "MHIS-NACC",
            "",
            "ABSENT",
            "",
            "0",
            0,
            "",
            "",
            "",
            "",
            "",
            1,
            "SCREENING 1",
            -7,
            "TREATMENT",
            "2013-07-11",
            -8
          ],
          [
            29,
            "CDISCPILOT01",
            "QS",
            "01-701-1028",
            1003,
            "MHITM03",
            "FLUCTUATING COURSE",
            "MHIS-NACC",
            "",
            "ABSENT",
            "",
            "0",
            0,
            "",
            "",
            "",
            "",
            "",
            1,
            "SCREENING 1",
            -7,
            "TREATMENT",
            "2013-07-11",
            -8
          ],
          [
            30,
            "CDISCPILOT01",
            "QS",
            "01-701-1028",
            1004,
            "MHITM04",
            "NOCTURNAL CONFUSION",
            "MHIS-NACC",
            "",
            "ABSENT",
            "",
            "0",
            0,
            "",
            "",
            "",
            "",
            "",
            1,
            "SCREENING 1",
            -7,
            "TREATMENT",
            "2013-07-11",
            -8
          ],
          [
            31,
            "CDISCPILOT01",
            "QS",
            "01-701-1028",
            1005,
            "MHITM05",
            "RELATIVE PRESERVATION OF PERSONALITY",
            "MHIS-NACC",
            "",
            "ABSENT",
            "",
            "0",
            0,
            "",
            "",
            "",
            "",
            "",
            1,
            "SCREENING 1",
            -7,
            "TREATMENT",
            "2013-07-11",
            -8
          ],
          [
            32,
            "CDISCPILOT01",
            "QS",
            "01-701-1028",
            1006,
            "MHITM06",
            "DEPRESSION",
            "MHIS-NACC",
            "",
            "ABSENT",
            "",
            "0",
            0,
            "",
            "",
            "",
            "",
            "",
            1,
            "SCREENING 1",
            -7,
            "TREATMENT",
            "2013-07-11",
            -8
          ],
          [
            33,
            "CDISCPILOT01",
            "QS",
            "01-701-1028",
            1007,
            "MHITM07",
            "SOMATIC COMPLAINTS",
            "MHIS-NACC",
            "",
            "ABSENT",
            "",
            "0",
            0,
            "",
            "",
            "",
            "",
            "",
            1,
            "SCREENING 1",
            -7,
            "TREATMENT",
            "2013-07-11",
            -8
          ],
          [
            34,
            "CDISCPILOT01",
            "QS",
            "01-701-1028",
            1008,
            "MHITM08",
            "EMOTIONAL INCONTINENCE",
            "MHIS-NACC",
            "",
            "ABSENT",
            "",
            "0",
            0,
            "",
            "",
            "",
            "",
            "",
            1,
            "SCREENING 1",
            -7,
            "TREATMENT",
            "2013-07-11",
            -8
          ],
          [
            35,
            "CDISCPILOT01",
            "QS",
            "01-701-1028",
            1009,
            "MHITM09",
            "HISTORY OF HYPERTENSION",
            "MHIS-NACC",
            "",
            "ABSENT",
            "",
            "0",
            0,
            "",
            "",
            "",
            "",
            "",
            1,
            "SCREENING 1",
            -7,
            "TREATMENT",
            "2013-07-11",
            -8
          ],
          [
            36,
            "CDISCPILOT01",
            "QS",
            "01-701-1028",
            1010,
            "MHITM10",
            "HISTORY OF STROKES",
            "MHIS-NACC",
            "",
            "ABSENT",
            "",
            "0",
            0,
            "",
            "",
            "",
            "",
            "",
            1,
            "SCREENING 1",
            -7,
            "TREATMENT",
            "2013-07-11",
            -8
          ],
          [
            37,
            "CDISCPILOT01",
            "QS",
            "01-701-1028",
            1011,
            "MHITM11",
            "EVIDENCE OF ASSOCIATED ATHEROSCLEROSIS",
            "MHIS-NACC",
            "",
            "ABSENT",
            "",
            "0",
            0,
            "",
            "",
            "",
            "",
            "",
            1,
            "SCREENING 1",
            -7,
            "TREATMENT",
            "2013-07-11",
            -8
          ],
          [
            38,
            "CDISCPILOT01",
            "QS",
            "01-701-1028",
            1012,
            "MHITM12",
            "FOCAL NEUROLOGICAL SYMPTOMS",
            "MHIS-NACC",
            "",
            "ABSENT",
            "",
            "0",
            0,
            "",
            "",
            "",
            "",
            "",
            1,
            "SCREENING 1",
            -7,
            "TREATMENT",
            "2013-07-11",
            -8
          ],
          [
            39,
            "CDISCPILOT01",
            "QS",
            "01-701-1028",
            1013,
            "MHITM13",
            "FOCAL NEUROLOGICAL SIGNS",
            "MHIS-NACC",
            "",
            "ABSENT",
            "",
            "0",
            0,
            "",
            "",
            "",
            "",
            "",
            1,
            "SCREENING 1",
            -7,
            "TREATMENT",
            "2013-07-11",
            -8
          ],
          [
            40,
            "CDISCPILOT01",
            "QS",
            "01-701-1033",
            1001,
            "MHITM01",
            "ABRUPT ONSET",
            "MHIS-NACC",
            "",
            "ABSENT",
            "",
            "0",
            0,
            "",
            "",
            "",
            "",
            "",
            1,
            "SCREENING 1",
            -7,
            "TREATMENT",
            "2014-03-10",
            -8
          ],
          [
            41,
            "CDISCPILOT01",
            "QS",
            "01-701-1033",
            1002,
            "MHITM02",
            "STEPWISE DETERIORATION",
            "MHIS-NACC",
            "",
            "ABSENT",
            "",
            "0",
            0,
            "",
            "",
            "",
            "",
            "",
            1,
            "SCREENING 1",
            -7,
            "TREATMENT",
            "2014-03-10",
            -8
          ],
          [
            42,
            "CDISCPILOT01",
            "QS",
            "01-701-1033",
            1003,
            "MHITM03",
            "FLUCTUATING COURSE",
            "MHIS-NACC",
            "",
            "ABSENT",
            "",
            "0",
            0,
            "",
            "",
            "",
            "",
            "",
            1,
            "SCREENING 1",
            -7,
            "TREATMENT",
            "2014-03-10",
            -8
          ],
          [
            43,
            "CDISCPILOT01",
            "QS",
            "01-701-1033",
            1004,
            "MHITM04",
            "NOCTURNAL CONFUSION",
            "MHIS-NACC",
            "",
            "ABSENT",
            "",
            "0",
            0,
            "",
            "",
            "",
            "",
            "",
            1,
            "SCREENING 1",
            -7,
            "TREATMENT",
            "2014-03-10",
            -8
          ],
          [
            44,
            "CDISCPILOT01",
            "QS",
            "01-701-1033",
            1005,
            "MHITM05",
            "RELATIVE PRESERVATION OF PERSONALITY",
            "MHIS-NACC",
            "",
            "ABSENT",
            "",
            "0",
            0,
            "",
            "",
            "",
            "",
            "",
            1,
            "SCREENING 1",
            -7,
            "TREATMENT",
            "2014-03-10",
            -8
          ],
          [
            45,
            "CDISCPILOT01",
            "QS",
            "01-701-1033",
            1006,
            "MHITM06",
            "DEPRESSION",
            "MHIS-NACC",
            "",
            "ABSENT",
            "",
            "0",
            0,
            "",
            "",
            "",
            "",
            "",
            1,
            "SCREENING 1",
            -7,
            "TREATMENT",
            "2014-03-10",
            -8
          ],
          [
            46,
            "CDISCPILOT01",
            "QS",
            "01-701-1033",
            1007,
            "MHITM07",
            "SOMATIC COMPLAINTS",
            "MHIS-NACC",
            "",
            "ABSENT",
            "",
            "0",
            0,
            "",
            "",
            "",
            "",
            "",
            1,
            "SCREENING 1",
            -7,
            "TREATMENT",
            "2014-03-10",
            -8
          ],
          [
            47,
            "CDISCPILOT01",
            "QS",
            "01-701-1033",
            1008,
            "MHITM08",
            "EMOTIONAL INCONTINENCE",
            "MHIS-NACC",
            "",
            "ABSENT",
            "",
            "0",
            0,
            "",
            "",
            "",
            "",
            "",
            1,
            "SCREENING 1",
            -7,
            "TREATMENT",
            "2014-03-10",
            -8
          ],
          [
            48,
            "CDISCPILOT01",
            "QS",
            "01-701-1033",
            1009,
            "MHITM09",
            "HISTORY OF HYPERTENSION",
            "MHIS-NACC",
            "",
            "ABSENT",
            "",
            "0",
            0,
            "",
            "",
            "",
            "",
            "",
            1,
            "SCREENING 1",
            -7,
            "TREATMENT",
            "2014-03-10",
            -8
          ],
          [
            49,
            "CDISCPILOT01",
            "QS",
            "01-701-1033",
            1010,
            "MHITM10",
            "HISTORY OF STROKES",
            "MHIS-NACC",
            "",
            "ABSENT",
            "",
            "0",
            0,
            "",
            "",
            "",
            "",
            "",
            1,
            "SCREENING 1",
            -7,
            "TREATMENT",
            "2014-03-10",
            -8
          ],
          [
            50,
            "CDISCPILOT01",
            "QS",
            "01-701-1033",
            1011,
            "MHITM11",
            "EVIDENCE OF ASSOCIATED ATHEROSCLEROSIS",
            "MHIS-NACC",
            "",
            "ABSENT",
            "",
            "0",
            0,
            "",
            "",
            "",
            "",
            "",
            1,
            "SCREENING 1",
            -7,
            "TREATMENT",
            "2014-03-10",
            -8
          ],
          [
            51,
            "CDISCPILOT01",
            "QS",
            "01-701-1033",
            1012,
            "MHITM12",
            "FOCAL NEUROLOGICAL SYMPTOMS",
            "MHIS-NACC",
            "",
            "ABSENT",
            "",
            "0",
            0,
            "",
            "",
            "",
            "",
            "",
            1,
            "SCREENING 1",
            -7,
            "TREATMENT",
            "2014-03-10",
            -8
          ],
          [
            52,
            "CDISCPILOT01",
            "QS",
            "01-701-1033",
            1013,
            "MHITM13",
            "FOCAL NEUROLOGICAL SIGNS",
            "MHIS-NACC",
            "",
            "ABSENT",
            "",
            "0",
            0,
            "",
            "",
            "",
            "",
            "",
            1,
            "SCREENING 1",
            -7,
            "TREATMENT",
            "2014-03-10",
            -8
          ],
          [
            53,
            "CDISCPILOT01",
            "QS",
            "01-701-1034",
            1001,
            "MHITM01",
            "ABRUPT ONSET",
            "MHIS-NACC",
            "",
            "ABSENT",
            "",
            "0",
            0,
            "",
            "",
            "",
            "",
            "",
            1,
            "SCREENING 1",
            -7,
            "TREATMENT",
            "2014-06-24",
            -7
          ],
          [
            54,
            "CDISCPILOT01",
            "QS",
            "01-701-1034",
            1002,
            "MHITM02",
            "STEPWISE DETERIORATION",
            "MHIS-NACC",
            "",
            "ABSENT",
            "",
            "0",
            0,
            "",
            "",
            "",
            "",
            "",
            1,
            "SCREENING 1",
            -7,
            "TREATMENT",
            "2014-06-24",
            -7
          ],
          [
            55,
            "CDISCPILOT01",
            "QS",
            "01-701-1034",
            1003,
            "MHITM03",
            "FLUCTUATING COURSE",
            "MHIS-NACC",
            "",
            "ABSENT",
            "",
            "0",
            0,
            "",
            "",
            "",
            "",
            "",
            1,
            "SCREENING 1",
            -7,
            "TREATMENT",
            "2014-06-24",
            -7
          ],
          [
            56,
            "CDISCPILOT01",
            "QS",
            "01-701-1034",
            1004,
            "MHITM04",
            "NOCTURNAL CONFUSION",
            "MHIS-NACC",
            "",
            "ABSENT",
            "",
            "0",
            0,
            "",
            "",
            "",
            "",
            "",
            1,
            "SCREENING 1",
            -7,
            "TREATMENT",
            "2014-06-24",
            -7
          ],
          [
            57,
            "CDISCPILOT01",
            "QS",
            "01-701-1034",
            1005,
            "MHITM05",
            "RELATIVE PRESERVATION OF PERSONALITY",
            "MHIS-NACC",
            "",
            "ABSENT",
            "",
            "0",
            0,
            "",
            "",
            "",
            "",
            "",
            1,
            "SCREENING 1",
            -7,
            "TREATMENT",
            "2014-06-24",
            -7
          ],
          [
            58,
            "CDISCPILOT01",
            "QS",
            "01-701-1034",
            1006,
            "MHITM06",
            "DEPRESSION",
            "MHIS-NACC",
            "",
            "ABSENT",
            "",
            "0",
            0,
            "",
            "",
            "",
            "",
            "",
            1,
            "SCREENING 1",
            -7,
            "TREATMENT",
            "2014-06-24",
            -7
          ],
          [
            59,
            "CDISCPILOT01",
            "QS",
            "01-701-1034",
            1007,
            "MHITM07",
            "SOMATIC COMPLAINTS",
            "MHIS-NACC",
            "",
            "ABSENT",
            "",
            "0",
            0,
            "",
            "",
            "",
            "",
            "",
            1,
            "SCREENING 1",
            -7,
            "TREATMENT",
            "2014-06-24",
            -7
          ],
          [
            60,
            "CDISCPILOT01",
            "QS",
            "01-701-1034",
            1008,
            "MHITM08",
            "EMOTIONAL INCONTINENCE",
            "MHIS-NACC",
            "",
            "ABSENT",
            "",
            "0",
            0,
            "",
            "",
            "",
            "",
            "",
            1,
            "SCREENING 1",
            -7,
            "TREATMENT",
            "2014-06-24",
            -7
          ],
          [
            61,
            "CDISCPILOT01",
            "QS",
            "01-701-1034",
            1009,
            "MHITM09",
            "HISTORY OF HYPERTENSION",
            "MHIS-NACC",
            "",
            "ABSENT",
            "",
            "0",
            0,
            "",
            "",
            "",
            "",
            "",
            1,
            "SCREENING 1",
            -7,
            "TREATMENT",
            "2014-06-24",
            -7
          ],
          [
            62,
            "CDISCPILOT01",
            "QS",
            "01-701-1034",
            1010,
            "MHITM10",
            "HISTORY OF STROKES",
            "MHIS-NACC",
            "",
            "ABSENT",
            "",
            "0",
            0,
            "",
            "",
            "",
            "",
            "",
            1,
            "SCREENING 1",
            -7,
            "TREATMENT",
            "2014-06-24",
            -7
          ],
          [
            63,
            "CDISCPILOT01",
            "QS",
            "01-701-1034",
            1011,
            "MHITM11",
            "EVIDENCE OF ASSOCIATED ATHEROSCLEROSIS",
            "MHIS-NACC",
            "",
            "ABSENT",
            "",
            "0",
            0,
            "",
            "",
            "",
            "",
            "",
            1,
            "SCREENING 1",
            -7,
            "TREATMENT",
            "2014-06-24",
            -7
          ],
          [
            64,
            "CDISCPILOT01",
            "QS",
            "01-701-1034",
            1012,
            "MHITM12",
            "FOCAL NEUROLOGICAL SYMPTOMS",
            "MHIS-NACC",
            "",
            "ABSENT",
            "",
            "0",
            0,
            "",
            "",
            "",
            "",
            "",
            1,
            "SCREENING 1",
            -7,
            "TREATMENT",
            "2014-06-24",
            -7
          ],
          [
            65,
            "CDISCPILOT01",
            "QS",
            "01-701-1034",
            1013,
            "MHITM13",
            "FOCAL NEUROLOGICAL SIGNS",
            "MHIS-NACC",
            "",
            "ABSENT",
            "",
            "0",
            0,
            "",
            "",
            "",
            "",
            "",
            1,
            "SCREENING 1",
            -7,
            "TREATMENT",
            "2014-06-24",
            -7
          ],
          [
            66,
            "CDISCPILOT01",
            "QS",
            "01-701-1047",
            1001,
            "MHITM01",
            "ABRUPT ONSET",
            "MHIS-NACC",
            "",
            "ABSENT",
            "",
            "0",
            0,
            "",
            "",
            "",
            "",
            "",
            1,
            "SCREENING 1",
            -7,
            "TREATMENT",
            "2013-01-22",
            -21
          ],
          [
            67,
            "CDISCPILOT01",
            "QS",
            "01-701-1047",
            1002,
            "MHITM02",
            "STEPWISE DETERIORATION",
            "MHIS-NACC",
            "",
            "ABSENT",
            "",
            "0",
            0,
            "",
            "",
            "",
            "",
            "",
            1,
            "SCREENING 1",
            -7,
            "TREATMENT",
            "2013-01-22",
            -21
          ],
          [
            68,
            "CDISCPILOT01",
            "QS",
            "01-701-1047",
            1003,
            "MHITM03",
            "FLUCTUATING COURSE",
            "MHIS-NACC",
            "",
            "ABSENT",
            "",
            "0",
            0,
            "",
            "",
            "",
            "",
            "",
            1,
            "SCREENING 1",
            -7,
            "TREATMENT",
            "2013-01-22",
            -21
          ],
          [
            69,
            "CDISCPILOT01",
            "QS",
            "01-701-1047",
            1004,
            "MHITM04",
            "NOCTURNAL CONFUSION",
            "MHIS-NACC",
            "",
            "ABSENT",
            "",
            "0",
            0,
            "",
            "",
            "",
            "",
            "",
            1,
            "SCREENING 1",
            -7,
            "TREATMENT",
            "2013-01-22",
            -21
          ],
          [
            70,
            "CDISCPILOT01",
            "QS",
            "01-701-1047",
            1005,
            "MHITM05",
            "RELATIVE PRESERVATION OF PERSONALITY",
            "MHIS-NACC",
            "",
            "ABSENT",
            "",
            "0",
            0,
            "",
            "",
            "",
            "",
            "",
            1,
            "SCREENING 1",
            -7,
            "TREATMENT",
            "2013-01-22",
            -21
          ],
          [
            71,
            "CDISCPILOT01",
            "QS",
            "01-701-1047",
            1006,
            "MHITM06",
            "DEPRESSION",
            "MHIS-NACC",
            "",
            "ABSENT",
            "",
            "0",
            0,
            "",
            "",
            "",
            "",
            "",
            1,
            "SCREENING 1",
            -7,
            "TREATMENT",
            "2013-01-22",
            -21
          ],
          [
            72,
            "CDISCPILOT01",
            "QS",
            "01-701-1047",
            1007,
            "MHITM07",
            "SOMATIC COMPLAINTS",
            "MHIS-NACC",
            "",
            "ABSENT",
            "",
            "0",
            0,
            "",
            "",
            "",
            "",
            "",
            1,
            "SCREENING 1",
            -7,
            "TREATMENT",
            "2013-01-22",
            -21
          ],
          [
            73,
            "CDISCPILOT01",
            "QS",
            "01-701-1047",
            1008,
            "MHITM08",
            "EMOTIONAL INCONTINENCE",
            "MHIS-NACC",
            "",
            "ABSENT",
            "",
            "0",
            0,
            "",
            "",
            "",
            "",
            "",
            1,
            "SCREENING 1",
            -7,
            "TREATMENT",
            "2013-01-22",
            -21
          ],
          [
            74,
            "CDISCPILOT01",
            "QS",
            "01-701-1047",
            1009,
            "MHITM09",
            "HISTORY OF HYPERTENSION",
            "MHIS-NACC",
            "",
            "ABSENT",
            "",
            "0",
            0,
            "",
            "",
            "",
            "",
            "",
            1,
            "SCREENING 1",
            -7,
            "TREATMENT",
            "2013-01-22",
            -21
          ],
          [
            75,
            "CDISCPILOT01",
            "QS",
            "01-701-1047",
            1010,
            "MHITM10",
            "HISTORY OF STROKES",
            "MHIS-NACC",
            "",
            "ABSENT",
            "",
            "0",
            0,
            "",
            "",
            "",
            "",
            "",
            1,
            "SCREENING 1",
            -7,
            "TREATMENT",
            "2013-01-22",
            -21
          ],
          [
            76,
            "CDISCPILOT01",
            "QS",
            "01-701-1047",
            1011,
            "MHITM11",
            "EVIDENCE OF ASSOCIATED ATHEROSCLEROSIS",
            "MHIS-NACC",
            "",
            "ABSENT",
            "",
            "0",
            0,
            "",
            "",
            "",
            "",
            "",
            1,
            "SCREENING 1",
            -7,
            "TREATMENT",
            "2013-01-22",
            -21
          ],
          [
            77,
            "CDISCPILOT01",
            "QS",
            "01-701-1047",
            1012,
            "MHITM12",
            "FOCAL NEUROLOGICAL SYMPTOMS",
            "MHIS-NACC",
            "",
            "ABSENT",
            "",
            "0",
            0,
            "",
            "",
            "",
            "",
            "",
            1,
            "SCREENING 1",
            -7,
            "TREATMENT",
            "2013-01-22",
            -21
          ],
          [
            78,
            "CDISCPILOT01",
            "QS",
            "01-701-1047",
            1013,
            "MHITM13",
            "FOCAL NEUROLOGICAL SIGNS",
            "MHIS-NACC",
            "",
            "ABSENT",
            "",
            "0",
            0,
            "",
            "",
            "",
            "",
            "",
            1,
            "SCREENING 1",
            -7,
            "TREATMENT",
            "2013-01-22",
            -21
          ],
          [
            79,
            "CDISCPILOT01",
            "QS",
            "01-701-1097",
            1001,
            "MHITM01",
            "ABRUPT ONSET",
            "MHIS-NACC",
            "",
            "ABSENT",
            "",
            "0",
            0,
            "",
            "",
            "",
            "",
            "",
            1,
            "SCREENING 1",
            -7,
            "TREATMENT",
            "2013-12-23",
            -9
          ],
          [
            80,
            "CDISCPILOT01",
            "QS",
            "01-701-1097",
            1002,
            "MHITM02",
            "STEPWISE DETERIORATION",
            "MHIS-NACC",
            "",
            "ABSENT",
            "",
            "0",
            0,
            "",
            "",
            "",
            "",
            "",
            1,
            "SCREENING 1",
            -7,
            "TREATMENT",
            "2013-12-23",
            -9
          ],
          [
            81,
            "CDISCPILOT01",
            "QS",
            "01-701-1097",
            1003,
            "MHITM03",
            "FLUCTUATING COURSE",
            "MHIS-NACC",
            "",
            "ABSENT",
            "",
            "0",
            0,
            "",
            "",
            "",
            "",
            "",
            1,
            "SCREENING 1",
            -7,
            "TREATMENT",
            "2013-12-23",
            -9
          ],
          [
            82,
            "CDISCPILOT01",
            "QS",
            "01-701-1097",
            1004,
            "MHITM04",
            "NOCTURNAL CONFUSION",
            "MHIS-NACC",
            "",
            "ABSENT",
            "",
            "0",
            0,
            "",
            "",
            "",
            "",
            "",
            1,
            "SCREENING 1",
            -7,
            "TREATMENT",
            "2013-12-23",
            -9
          ],
          [
            83,
            "CDISCPILOT01",
            "QS",
            "01-701-1097",
            1005,
            "MHITM05",
            "RELATIVE PRESERVATION OF PERSONALITY",
            "MHIS-NACC",
            "",
            "PRESENT",
            "",
            "1",
            1,
            "",
            "",
            "",
            "",
            "",
            1,
            "SCREENING 1",
            -7,
            "TREATMENT",
            "2013-12-23",
            -9
          ],
          [
            84,
            "CDISCPILOT01",
            "QS",
            "01-701-1097",
            1006,
            "MHITM06",
            "DEPRESSION",
            "MHIS-NACC",
            "",
            "ABSENT",
            "",
            "0",
            0,
            "",
            "",
            "",
            "",
            "",
            1,
            "SCREENING 1",
            -7,
            "TREATMENT",
            "2013-12-23",
            -9
          ],
          [
            85,
            "CDISCPILOT01",
            "QS",
            "01-701-1097",
            1007,
            "MHITM07",
            "SOMATIC COMPLAINTS",
            "MHIS-NACC",
            "",
            "ABSENT",
            "",
            "0",
            0,
            "",
            "",
            "",
            "",
            "",
            1,
            "SCREENING 1",
            -7,
            "TREATMENT",
            "2013-12-23",
            -9
          ],
          [
            86,
            "CDISCPILOT01",
            "QS",
            "01-701-1097",
            1008,
            "MHITM08",
            "EMOTIONAL INCONTINENCE",
            "MHIS-NACC",
            "",
            "ABSENT",
            "",
            "0",
            0,
            "",
            "",
            "",
            "",
            "",
            1,
            "SCREENING 1",
            -7,
            "TREATMENT",
            "2013-12-23",
            -9
          ],
          [
            87,
            "CDISCPILOT01",
            "QS",
            "01-701-1097",
            1009,
            "MHITM09",
            "HISTORY OF HYPERTENSION",
            "MHIS-NACC",
            "",
            "ABSENT",
            "",
            "0",
            0,
            "",
            "",
            "",
            "",
            "",
            1,
            "SCREENING 1",
            -7,
            "TREATMENT",
            "2013-12-23",
            -9
          ],
          [
            88,
            "CDISCPILOT01",
            "QS",
            "01-701-1097",
            1010,
            "MHITM10",
            "HISTORY OF STROKES",
            "MHIS-NACC",
            "",
            "ABSENT",
            "",
            "0",
            0,
            "",
            "",
            "",
            "",
            "",
            1,
            "SCREENING 1",
            -7,
            "TREATMENT",
            "2013-12-23",
            -9
          ],
          [
            89,
            "CDISCPILOT01",
            "QS",
            "01-701-1097",
            1011,
            "MHITM11",
            "EVIDENCE OF ASSOCIATED ATHEROSCLEROSIS",
            "MHIS-NACC",
            "",
            "ABSENT",
            "",
            "0",
            0,
            "",
            "",
            "",
            "",
            "",
            1,
            "SCREENING 1",
            -7,
            "TREATMENT",
            "2013-12-23",
            -9
          ],
          [
            90,
            "CDISCPILOT01",
            "QS",
            "01-701-1097",
            1012,
            "MHITM12",
            "FOCAL NEUROLOGICAL SYMPTOMS",
            "MHIS-NACC",
            "",
            "ABSENT",
            "",
            "0",
            0,
            "",
            "",
            "",
            "",
            "",
            1,
            "SCREENING 1",
            -7,
            "TREATMENT",
            "2013-12-23",
            -9
          ],
          [
            91,
            "CDISCPILOT01",
            "QS",
            "01-701-1097",
            1013,
            "MHITM13",
            "FOCAL NEUROLOGICAL SIGNS",
            "MHIS-NACC",
            "",
            "ABSENT",
            "",
            "0",
            0,
            "",
            "",
            "",
            "",
            "",
            1,
            "SCREENING 1",
            -7,
            "TREATMENT",
            "2013-12-23",
            -9
          ],
          [
            92,
            "CDISCPILOT01",
            "QS",
            "01-701-1111",
            1001,
            "MHITM01",
            "ABRUPT ONSET",
            "MHIS-NACC",
            "",
            "ABSENT",
            "",
            "0",
            0,
            "",
            "",
            "",
            "",
            "",
            1,
            "SCREENING 1",
            -7,
            "TREATMENT",
            "2012-08-25",
            -13
          ],
          [
            93,
            "CDISCPILOT01",
            "QS",
            "01-701-1111",
            1002,
            "MHITM02",
            "STEPWISE DETERIORATION",
            "MHIS-NACC",
            "",
            "ABSENT",
            "",
            "0",
            0,
            "",
            "",
            "",
            "",
            "",
            1,
            "SCREENING 1",
            -7,
            "TREATMENT",
            "2012-08-25",
            -13
          ],
          [
            94,
            "CDISCPILOT01",
            "QS",
            "01-701-1111",
            1003,
            "MHITM03",
            "FLUCTUATING COURSE",
            "MHIS-NACC",
            "",
            "ABSENT",
            "",
            "0",
            0,
            "",
            "",
            "",
            "",
            "",
            1,
            "SCREENING 1",
            -7,
            "TREATMENT",
            "2012-08-25",
            -13
          ],
          [
            95,
            "CDISCPILOT01",
            "QS",
            "01-701-1111",
            1004,
            "MHITM04",
            "NOCTURNAL CONFUSION",
            "MHIS-NACC",
            "",
            "ABSENT",
            "",
            "0",
            0,
            "",
            "",
            "",
            "",
            "",
            1,
            "SCREENING 1",
            -7,
            "TREATMENT",
            "2012-08-25",
            -13
          ],
          [
            96,
            "CDISCPILOT01",
            "QS",
            "01-701-1111",
            1005,
            "MHITM05",
            "RELATIVE PRESERVATION OF PERSONALITY",
            "MHIS-NACC",
            "",
            "ABSENT",
            "",
            "0",
            0,
            "",
            "",
            "",
            "",
            "",
            1,
            "SCREENING 1",
            -7,
            "TREATMENT",
            "2012-08-25",
            -13
          ],
          [
            97,
            "CDISCPILOT01",
            "QS",
            "01-701-1111",
            1006,
            "MHITM06",
            "DEPRESSION",
            "MHIS-NACC",
            "",
            "ABSENT",
            "",
            "0",
            0,
            "",
            "",
            "",
            "",
            "",
            1,
            "SCREENING 1",
            -7,
            "TREATMENT",
            "2012-08-25",
            -13
          ],
          [
            98,
            "CDISCPILOT01",
            "QS",
            "01-701-1111",
            1007,
            "MHITM07",
            "SOMATIC COMPLAINTS",
            "MHIS-NACC",
            "",
            "ABSENT",
            "",
            "0",
            0,
            "",
            "",
            "",
            "",
            "",
            1,
            "SCREENING 1",
            -7,
            "TREATMENT",
            "2012-08-25",
            -13
          ],
          [
            99,
            "CDISCPILOT01",
            "QS",
            "01-701-1111",
            1008,
            "MHITM08",
            "EMOTIONAL INCONTINENCE",
            "MHIS-NACC",
            "",
            "ABSENT",
            "",
            "0",
            0,
            "",
            "",
            "",
            "",
            "",
            1,
            "SCREENING 1",
            -7,
            "TREATMENT",
            "2012-08-25",
            -13
          ],
          [
            100,
            "CDISCPILOT01",
            "QS",
            "01-701-1111",
            1009,
            "MHITM09",
            "HISTORY OF HYPERTENSION",
            "MHIS-NACC",
            "",
            "PRESENT",
            "",
            "1",
            1,
            "",
            "",
            "",
            "",
            "",
            1,
            "SCREENING 1",
            -7,
            "TREATMENT",
            "2012-08-25",
            -13
          ],
          [
            101,
            "CDISCPILOT01",
            "QS",
            "01-701-1111",
            1010,
            "MHITM10",
            "HISTORY OF STROKES",
            "MHIS-NACC",
            "",
            "ABSENT",
            "",
            "0",
            0,
            "",
            "",
            "",
            "",
            "",
            1,
            "SCREENING 1",
            -7,
            "TREATMENT",
            "2012-08-25",
            -13
          ],
          [
            102,
            "CDISCPILOT01",
            "QS",
            "01-701-1111",
            1011,
            "MHITM11",
            "EVIDENCE OF ASSOCIATED ATHEROSCLEROSIS",
            "MHIS-NACC",
            "",
            "ABSENT",
            "",
            "0",
            0,
            "",
            "",
            "",
            "",
            "",
            1,
            "SCREENING 1",
            -7,
            "TREATMENT",
            "2012-08-25",
            -13
          ],
          [
            103,
            "CDISCPILOT01",
            "QS",
            "01-701-1111",
            1012,
            "MHITM12",
            "FOCAL NEUROLOGICAL SYMPTOMS",
            "MHIS-NACC",
            "",
            "ABSENT",
            "",
            "0",
            0,
            "",
            "",
            "",
            "",
            "",
            1,
            "SCREENING 1",
            -7,
            "TREATMENT",
            "2012-08-25",
            -13
          ],
          [
            104,
            "CDISCPILOT01",
            "QS",
            "01-701-1111",
            1013,
            "MHITM13",
            "FOCAL NEUROLOGICAL SIGNS",
            "MHIS-NACC",
            "",
            "ABSENT",
            "",
            "0",
            0,
            "",
            "",
            "",
            "",
            "",
            1,
            "SCREENING 1",
            -7,
            "TREATMENT",
            "2012-08-25",
            -13
          ],
          [
            105,
            "CDISCPILOT01",
            "QS",
            "01-701-1115",
            1001,
            "MHITM01",
            "ABRUPT ONSET",
            "MHIS-NACC",
            "",
            "ABSENT",
            "",
            "0",
            0,
            "",
            "",
            "",
            "",
            "",
            1,
            "SCREENING 1",
            -7,
            "TREATMENT",
            "2012-11-23",
            -7
          ],
          [
            106,
            "CDISCPILOT01",
            "QS",
            "01-701-1115",
            1002,
            "MHITM02",
            "STEPWISE DETERIORATION",
            "MHIS-NACC",
            "",
            "ABSENT",
            "",
            "0",
            0,
            "",
            "",
            "",
            "",
            "",
            1,
            "SCREENING 1",
            -7,
            "TREATMENT",
            "2012-11-23",
            -7
          ],
          [
            107,
            "CDISCPILOT01",
            "QS",
            "01-701-1115",
            1003,
            "MHITM03",
            "FLUCTUATING COURSE",
            "MHIS-NACC",
            "",
            "ABSENT",
            "",
            "0",
            0,
            "",
            "",
            "",
            "",
            "",
            1,
            "SCREENING 1",
            -7,
            "TREATMENT",
            "2012-11-23",
            -7
          ],
          [
            108,
            "CDISCPILOT01",
            "QS",
            "01-701-1115",
            1004,
            "MHITM04",
            "NOCTURNAL CONFUSION",
            "MHIS-NACC",
            "",
            "ABSENT",
            "",
            "0",
            0,
            "",
            "",
            "",
            "",
            "",
            1,
            "SCREENING 1",
            -7,
            "TREATMENT",
            "2012-11-23",
            -7
          ],
          [
            109,
            "CDISCPILOT01",
            "QS",
            "01-701-1115",
            1005,
            "MHITM05",
            "RELATIVE PRESERVATION OF PERSONALITY",
            "MHIS-NACC",
            "",
            "ABSENT",
            "",
            "0",
            0,
            "",
            "",
            "",
            "",
            "",
            1,
            "SCREENING 1",
            -7,
            "TREATMENT",
            "2012-11-23",
            -7
          ],
          [
            110,
            "CDISCPILOT01",
            "QS",
            "01-701-1115",
            1006,
            "MHITM06",
            "DEPRESSION",
            "MHIS-NACC",
            "",
            "ABSENT",
            "",
            "0",
            0,
            "",
            "",
            "",
            "",
            "",
            1,
            "SCREENING 1",
            -7,
            "TREATMENT",
            "2012-11-23",
            -7
          ],
          [
            111,
            "CDISCPILOT01",
            "QS",
            "01-701-1115",
            1007,
            "MHITM07",
            "SOMATIC COMPLAINTS",
            "MHIS-NACC",
            "",
            "ABSENT",
            "",
            "0",
            0,
            "",
            "",
            "",
            "",
            "",
            1,
            "SCREENING 1",
            -7,
            "TREATMENT",
            "2012-11-23",
            -7
          ],
          [
            112,
            "CDISCPILOT01",
            "QS",
            "01-701-1115",
            1008,
            "MHITM08",
            "EMOTIONAL INCONTINENCE",
            "MHIS-NACC",
            "",
            "ABSENT",
            "",
            "0",
            0,
            "",
            "",
            "",
            "",
            "",
            1,
            "SCREENING 1",
            -7,
            "TREATMENT",
            "2012-11-23",
            -7
          ],
          [
            113,
            "CDISCPILOT01",
            "QS",
            "01-701-1115",
            1009,
            "MHITM09",
            "HISTORY OF HYPERTENSION",
            "MHIS-NACC",
            "",
            "ABSENT",
            "",
            "0",
            0,
            "",
            "",
            "",
            "",
            "",
            1,
            "SCREENING 1",
            -7,
            "TREATMENT",
            "2012-11-23",
            -7
          ],
          [
            114,
            "CDISCPILOT01",
            "QS",
            "01-701-1115",
            1010,
            "MHITM10",
            "HISTORY OF STROKES",
            "MHIS-NACC",
            "",
            "ABSENT",
            "",
            "0",
            0,
            "",
            "",
            "",
            "",
            "",
            1,
            "SCREENING 1",
            -7,
            "TREATMENT",
            "2012-11-23",
            -7
          ],
          [
            115,
            "CDISCPILOT01",
            "QS",
            "01-701-1115",
            1011,
            "MHITM11",
            "EVIDENCE OF ASSOCIATED ATHEROSCLEROSIS",
            "MHIS-NACC",
            "",
            "ABSENT",
            "",
            "0",
            0,
            "",
            "",
            "",
            "",
            "",
            1,
            "SCREENING 1",
            -7,
            "TREATMENT",
            "2012-11-23",
            -7
          ],
          [
            116,
            "CDISCPILOT01",
            "QS",
            "01-701-1115",
            1012,
            "MHITM12",
            "FOCAL NEUROLOGICAL SYMPTOMS",
            "MHIS-NACC",
            "",
            "ABSENT",
            "",
            "0",
            0,
            "",
            "",
            "",
            "",
            "",
            1,
            "SCREENING 1",
            -7,
            "TREATMENT",
            "2012-11-23",
            -7
          ],
          [
            117,
            "CDISCPILOT01",
            "QS",
            "01-701-1115",
            1013,
            "MHITM13",
            "FOCAL NEUROLOGICAL SIGNS",
            "MHIS-NACC",
            "",
            "ABSENT",
            "",
            "0",
            0,
            "",
            "",
            "",
            "",
            "",
            1,
            "SCREENING 1",
            -7,
            "TREATMENT",
            "2012-11-23",
            -7
          ],
          [
            118,
            "CDISCPILOT01",
            "QS",
            "01-701-1118",
            1001,
            "MHITM01",
            "ABRUPT ONSET",
            "MHIS-NACC",
            "",
            "ABSENT",
            "",
            "0",
            0,
            "",
            "",
            "",
            "",
            "",
            1,
            "SCREENING 1",
            -7,
            "TREATMENT",
            "2014-02-27",
            -13
          ],
          [
            119,
            "CDISCPILOT01",
            "QS",
            "01-701-1118",
            1002,
            "MHITM02",
            "STEPWISE DETERIORATION",
            "MHIS-NACC",
            "",
            "ABSENT",
            "",
            "0",
            0,
            "",
            "",
            "",
            "",
            "",
            1,
            "SCREENING 1",
            -7,
            "TREATMENT",
            "2014-02-27",
            -13
          ],
          [
            120,
            "CDISCPILOT01",
            "QS",
            "01-701-1118",
            1003,
            "MHITM03",
            "FLUCTUATING COURSE",
            "MHIS-NACC",
            "",
            "ABSENT",
            "",
            "0",
            0,
            "",
            "",
            "",
            "",
            "",
            1,
            "SCREENING 1",
            -7,
            "TREATMENT",
            "2014-02-27",
            -13
          ],
          [
            121,
            "CDISCPILOT01",
            "QS",
            "01-701-1118",
            1004,
            "MHITM04",
            "NOCTURNAL CONFUSION",
            "MHIS-NACC",
            "",
            "ABSENT",
            "",
            "0",
            0,
            "",
            "",
            "",
            "",
            "",
            1,
            "SCREENING 1",
            -7,
            "TREATMENT",
            "2014-02-27",
            -13
          ],
          [
            122,
            "CDISCPILOT01",
            "QS",
            "01-701-1118",
            1005,
            "MHITM05",
            "RELATIVE PRESERVATION OF PERSONALITY",
            "MHIS-NACC",
            "",
            "ABSENT",
            "",
            "0",
            0,
            "",
            "",
            "",
            "",
            "",
            1,
            "SCREENING 1",
            -7,
            "TREATMENT",
            "2014-02-27",
            -13
          ],
          [
            123,
            "CDISCPILOT01",
            "QS",
            "01-701-1118",
            1006,
            "MHITM06",
            "DEPRESSION",
            "MHIS-NACC",
            "",
            "ABSENT",
            "",
            "0",
            0,
            "",
            "",
            "",
            "",
            "",
            1,
            "SCREENING 1",
            -7,
            "TREATMENT",
            "2014-02-27",
            -13
          ],
          [
            124,
            "CDISCPILOT01",
            "QS",
            "01-701-1118",
            1007,
            "MHITM07",
            "SOMATIC COMPLAINTS",
            "MHIS-NACC",
            "",
            "PRESENT",
            "",
            "1",
            1,
            "",
            "",
            "",
            "",
            "",
            1,
            "SCREENING 1",
            -7,
            "TREATMENT",
            "2014-02-27",
            -13
          ],
          [
            125,
            "CDISCPILOT01",
            "QS",
            "01-701-1118",
            1008,
            "MHITM08",
            "EMOTIONAL INCONTINENCE",
            "MHIS-NACC",
            "",
            "ABSENT",
            "",
            "0",
            0,
            "",
            "",
            "",
            "",
            "",
            1,
            "SCREENING 1",
            -7,
            "TREATMENT",
            "2014-02-27",
            -13
          ],
          [
            126,
            "CDISCPILOT01",
            "QS",
            "01-701-1118",
            1009,
            "MHITM09",
            "HISTORY OF HYPERTENSION",
            "MHIS-NACC",
            "",
            "ABSENT",
            "",
            "0",
            0,
            "",
            "",
            "",
            "",
            "",
            1,
            "SCREENING 1",
            -7,
            "TREATMENT",
            "2014-02-27",
            -13
          ],
          [
            127,
            "CDISCPILOT01",
            "QS",
            "01-701-1118",
            1010,
            "MHITM10",
            "HISTORY OF STROKES",
            "MHIS-NACC",
            "",
            "ABSENT",
            "",
            "0",
            0,
            "",
            "",
            "",
            "",
            "",
            1,
            "SCREENING 1",
            -7,
            "TREATMENT",
            "2014-02-27",
            -13
          ],
          [
            128,
            "CDISCPILOT01",
            "QS",
            "01-701-1118",
            1011,
            "MHITM11",
            "EVIDENCE OF ASSOCIATED ATHEROSCLEROSIS",
            "MHIS-NACC",
            "",
            "ABSENT",
            "",
            "0",
            0,
            "",
            "",
            "",
            "",
            "",
            1,
            "SCREENING 1",
            -7,
            "TREATMENT",
            "2014-02-27",
            -13
          ],
          [
            129,
            "CDISCPILOT01",
            "QS",
            "01-701-1118",
            1012,
            "MHITM12",
            "FOCAL NEUROLOGICAL SYMPTOMS",
            "MHIS-NACC",
            "",
            "ABSENT",
            "",
            "0",
            0,
            "",
            "",
            "",
            "",
            "",
            1,
            "SCREENING 1",
            -7,
            "TREATMENT",
            "2014-02-27",
            -13
          ],
          [
            130,
            "CDISCPILOT01",
            "QS",
            "01-701-1118",
            1013,
            "MHITM13",
            "FOCAL NEUROLOGICAL SIGNS",
            "MHIS-NACC",
            "",
            "ABSENT",
            "",
            "0",
            0,
            "",
            "",
            "",
            "",
            "",
            1,
            "SCREENING 1",
            -7,
            "TREATMENT",
            "2014-02-27",
            -13
          ],
          [
            131,
            "CDISCPILOT01",
            "QS",
            "01-701-1130",
            1001,
            "MHITM01",
            "ABRUPT ONSET",
            "MHIS-NACC",
            "",
            "ABSENT",
            "",
            "0",
            0,
            "",
            "",
            "",
            "",
            "",
            1,
            "SCREENING 1",
            -7,
            "TREATMENT",
            "2014-02-09",
            -6
          ],
          [
            132,
            "CDISCPILOT01",
            "QS",
            "01-701-1130",
            1002,
            "MHITM02",
            "STEPWISE DETERIORATION",
            "MHIS-NACC",
            "",
            "ABSENT",
            "",
            "0",
            0,
            "",
            "",
            "",
            "",
            "",
            1,
            "SCREENING 1",
            -7,
            "TREATMENT",
            "2014-02-09",
            -6
          ],
          [
            133,
            "CDISCPILOT01",
            "QS",
            "01-701-1130",
            1003,
            "MHITM03",
            "FLUCTUATING COURSE",
            "MHIS-NACC",
            "",
            "ABSENT",
            "",
            "0",
            0,
            "",
            "",
            "",
            "",
            "",
            1,
            "SCREENING 1",
            -7,
            "TREATMENT",
            "2014-02-09",
            -6
          ],
          [
            134,
            "CDISCPILOT01",
            "QS",
            "01-701-1130",
            1004,
            "MHITM04",
            "NOCTURNAL CONFUSION",
            "MHIS-NACC",
            "",
            "ABSENT",
            "",
            "0",
            0,
            "",
            "",
            "",
            "",
            "",
            1,
            "SCREENING 1",
            -7,
            "TREATMENT",
            "2014-02-09",
            -6
          ],
          [
            135,
            "CDISCPILOT01",
            "QS",
            "01-701-1130",
            1005,
            "MHITM05",
            "RELATIVE PRESERVATION OF PERSONALITY",
            "MHIS-NACC",
            "",
            "ABSENT",
            "",
            "0",
            0,
            "",
            "",
            "",
            "",
            "",
            1,
            "SCREENING 1",
            -7,
            "TREATMENT",
            "2014-02-09",
            -6
          ],
          [
            136,
            "CDISCPILOT01",
            "QS",
            "01-701-1130",
            1006,
            "MHITM06",
            "DEPRESSION",
            "MHIS-NACC",
            "",
            "ABSENT",
            "",
            "0",
            0,
            "",
            "",
            "",
            "",
            "",
            1,
            "SCREENING 1",
            -7,
            "TREATMENT",
            "2014-02-09",
            -6
          ],
          [
            137,
            "CDISCPILOT01",
            "QS",
            "01-701-1130",
            1007,
            "MHITM07",
            "SOMATIC COMPLAINTS",
            "MHIS-NACC",
            "",
            "ABSENT",
            "",
            "0",
            0,
            "",
            "",
            "",
            "",
            "",
            1,
            "SCREENING 1",
            -7,
            "TREATMENT",
            "2014-02-09",
            -6
          ],
          [
            138,
            "CDISCPILOT01",
            "QS",
            "01-701-1130",
            1008,
            "MHITM08",
            "EMOTIONAL INCONTINENCE",
            "MHIS-NACC",
            "",
            "ABSENT",
            "",
            "0",
            0,
            "",
            "",
            "",
            "",
            "",
            1,
            "SCREENING 1",
            -7,
            "TREATMENT",
            "2014-02-09",
            -6
          ],
          [
            139,
            "CDISCPILOT01",
            "QS",
            "01-701-1130",
            1009,
            "MHITM09",
            "HISTORY OF HYPERTENSION",
            "MHIS-NACC",
            "",
            "ABSENT",
            "",
            "0",
            0,
            "",
            "",
            "",
            "",
            "",
            1,
            "SCREENING 1",
            -7,
            "TREATMENT",
            "2014-02-09",
            -6
          ],
          [
            140,
            "CDISCPILOT01",
            "QS",
            "01-701-1130",
            1010,
            "MHITM10",
            "HISTORY OF STROKES",
            "MHIS-NACC",
            "",
            "ABSENT",
            "",
            "0",
            0,
            "",
            "",
            "",
            "",
            "",
            1,
            "SCREENING 1",
            -7,
            "TREATMENT",
            "2014-02-09",
            -6
          ],
          [
            141,
            "CDISCPILOT01",
            "QS",
            "01-701-1130",
            1011,
            "MHITM11",
            "EVIDENCE OF ASSOCIATED ATHEROSCLEROSIS",
            "MHIS-NACC",
            "",
            "ABSENT",
            "",
            "0",
            0,
            "",
            "",
            "",
            "",
            "",
            1,
            "SCREENING 1",
            -7,
            "TREATMENT",
            "2014-02-09",
            -6
          ],
          [
            142,
            "CDISCPILOT01",
            "QS",
            "01-701-1130",
            1012,
            "MHITM12",
            "FOCAL NEUROLOGICAL SYMPTOMS",
            "MHIS-NACC",
            "",
            "ABSENT",
            "",
            "0",
            0,
            "",
            "",
            "",
            "",
            "",
            1,
            "SCREENING 1",
            -7,
            "TREATMENT",
            "2014-02-09",
            -6
          ],
          [
            143,
            "CDISCPILOT01",
            "QS",
            "01-701-1130",
            1013,
            "MHITM13",
            "FOCAL NEUROLOGICAL SIGNS",
            "MHIS-NACC",
            "",
            "ABSENT",
            "",
            "0",
            0,
            "",
            "",
            "",
            "",
            "",
            1,
            "SCREENING 1",
            -7,
            "TREATMENT",
            "2014-02-09",
            -6
          ],
          [
            144,
            "CDISCPILOT01",
            "QS",
            "01-701-1133",
            1001,
            "MHITM01",
            "ABRUPT ONSET",
            "MHIS-NACC",
            "",
            "ABSENT",
            "",
            "0",
            0,
            "",
            "",
            "",
            "",
            "",
            1,
            "SCREENING 1",
            -7,
            "TREATMENT",
            "2012-10-23",
            -5
          ],
          [
            145,
            "CDISCPILOT01",
            "QS",
            "01-701-1133",
            1002,
            "MHITM02",
            "STEPWISE DETERIORATION",
            "MHIS-NACC",
            "",
            "ABSENT",
            "",
            "0",
            0,
            "",
            "",
            "",
            "",
            "",
            1,
            "SCREENING 1",
            -7,
            "TREATMENT",
            "2012-10-23",
            -5
          ],
          [
            146,
            "CDISCPILOT01",
            "QS",
            "01-701-1133",
            1003,
            "MHITM03",
            "FLUCTUATING COURSE",
            "MHIS-NACC",
            "",
            "ABSENT",
            "",
            "0",
            0,
            "",
            "",
            "",
            "",
            "",
            1,
            "SCREENING 1",
            -7,
            "TREATMENT",
            "2012-10-23",
            -5
          ],
          [
            147,
            "CDISCPILOT01",
            "QS",
            "01-701-1133",
            1004,
            "MHITM04",
            "NOCTURNAL CONFUSION",
            "MHIS-NACC",
            "",
            "ABSENT",
            "",
            "0",
            0,
            "",
            "",
            "",
            "",
            "",
            1,
            "SCREENING 1",
            -7,
            "TREATMENT",
            "2012-10-23",
            -5
          ],
          [
            148,
            "CDISCPILOT01",
            "QS",
            "01-701-1133",
            1005,
            "MHITM05",
            "RELATIVE PRESERVATION OF PERSONALITY",
            "MHIS-NACC",
            "",
            "ABSENT",
            "",
            "0",
            0,
            "",
            "",
            "",
            "",
            "",
            1,
            "SCREENING 1",
            -7,
            "TREATMENT",
            "2012-10-23",
            -5
          ],
          [
            149,
            "CDISCPILOT01",
            "QS",
            "01-701-1133",
            1006,
            "MHITM06",
            "DEPRESSION",
            "MHIS-NACC",
            "",
            "ABSENT",
            "",
            "0",
            0,
            "",
            "",
            "",
            "",
            "",
            1,
            "SCREENING 1",
            -7,
            "TREATMENT",
            "2012-10-23",
            -5
          ],
          [
            150,
            "CDISCPILOT01",
            "QS",
            "01-701-1133",
            1007,
            "MHITM07",
            "SOMATIC COMPLAINTS",
            "MHIS-NACC",
            "",
            "ABSENT",
            "",
            "0",
            0,
            "",
            "",
            "",
            "",
            "",
            1,
            "SCREENING 1",
            -7,
            "TREATMENT",
            "2012-10-23",
            -5
          ],
          [
            151,
            "CDISCPILOT01",
            "QS",
            "01-701-1133",
            1008,
            "MHITM08",
            "EMOTIONAL INCONTINENCE",
            "MHIS-NACC",
            "",
            "ABSENT",
            "",
            "0",
            0,
            "",
            "",
            "",
            "",
            "",
            1,
            "SCREENING 1",
            -7,
            "TREATMENT",
            "2012-10-23",
            -5
          ],
          [
            152,
            "CDISCPILOT01",
            "QS",
            "01-701-1133",
            1009,
            "MHITM09",
            "HISTORY OF HYPERTENSION",
            "MHIS-NACC",
            "",
            "ABSENT",
            "",
            "0",
            0,
            "",
            "",
            "",
            "",
            "",
            1,
            "SCREENING 1",
            -7,
            "TREATMENT",
            "2012-10-23",
            -5
          ],
          [
            153,
            "CDISCPILOT01",
            "QS",
            "01-701-1133",
            1010,
            "MHITM10",
            "HISTORY OF STROKES",
            "MHIS-NACC",
            "",
            "ABSENT",
            "",
            "0",
            0,
            "",
            "",
            "",
            "",
            "",
            1,
            "SCREENING 1",
            -7,
            "TREATMENT",
            "2012-10-23",
            -5
          ],
          [
            154,
            "CDISCPILOT01",
            "QS",
            "01-701-1133",
            1011,
            "MHITM11",
            "EVIDENCE OF ASSOCIATED ATHEROSCLEROSIS",
            "MHIS-NACC",
            "",
            "ABSENT",
            "",
            "0",
            0,
            "",
            "",
            "",
            "",
            "",
            1,
            "SCREENING 1",
            -7,
            "TREATMENT",
            "2012-10-23",
            -5
          ],
          [
            155,
            "CDISCPILOT01",
            "QS",
            "01-701-1133",
            1012,
            "MHITM12",
            "FOCAL NEUROLOGICAL SYMPTOMS",
            "MHIS-NACC",
            "",
            "ABSENT",
            "",
            "0",
            0,
            "",
            "",
            "",
            "",
            "",
            1,
            "SCREENING 1",
            -7,
            "TREATMENT",
            "2012-10-23",
            -5
          ],
          [
            156,
            "CDISCPILOT01",
            "QS",
            "01-701-1133",
            1013,
            "MHITM13",
            "FOCAL NEUROLOGICAL SIGNS",
            "MHIS-NACC",
            "",
            "ABSENT",
            "",
            "0",
            0,
            "",
            "",
            "",
            "",
            "",
            1,
            "SCREENING 1",
            -7,
            "TREATMENT",
            "2012-10-23",
            -5
          ],
          [
            157,
            "CDISCPILOT01",
            "QS",
            "01-701-1146",
            1001,
            "MHITM01",
            "ABRUPT ONSET",
            "MHIS-NACC",
            "",
            "ABSENT",
            "",
            "0",
            0,
            "",
            "",
            "",
            "",
            "",
            1,
            "SCREENING 1",
            -7,
            "TREATMENT",
            "2013-05-07",
            -13
          ],
          [
            158,
            "CDISCPILOT01",
            "QS",
            "01-701-1146",
            1002,
            "MHITM02",
            "STEPWISE DETERIORATION",
            "MHIS-NACC",
            "",
            "ABSENT",
            "",
            "0",
            0,
            "",
            "",
            "",
            "",
            "",
            1,
            "SCREENING 1",
            -7,
            "TREATMENT",
            "2013-05-07",
            -13
          ],
          [
            159,
            "CDISCPILOT01",
            "QS",
            "01-701-1146",
            1003,
            "MHITM03",
            "FLUCTUATING COURSE",
            "MHIS-NACC",
            "",
            "ABSENT",
            "",
            "0",
            0,
            "",
            "",
            "",
            "",
            "",
            1,
            "SCREENING 1",
            -7,
            "TREATMENT",
            "2013-05-07",
            -13
          ],
          [
            160,
            "CDISCPILOT01",
            "QS",
            "01-701-1146",
            1004,
            "MHITM04",
            "NOCTURNAL CONFUSION",
            "MHIS-NACC",
            "",
            "ABSENT",
            "",
            "0",
            0,
            "",
            "",
            "",
            "",
            "",
            1,
            "SCREENING 1",
            -7,
            "TREATMENT",
            "2013-05-07",
            -13
          ],
          [
            161,
            "CDISCPILOT01",
            "QS",
            "01-701-1146",
            1005,
            "MHITM05",
            "RELATIVE PRESERVATION OF PERSONALITY",
            "MHIS-NACC",
            "",
            "ABSENT",
            "",
            "0",
            0,
            "",
            "",
            "",
            "",
            "",
            1,
            "SCREENING 1",
            -7,
            "TREATMENT",
            "2013-05-07",
            -13
          ],
          [
            162,
            "CDISCPILOT01",
            "QS",
            "01-701-1146",
            1006,
            "MHITM06",
            "DEPRESSION",
            "MHIS-NACC",
            "",
            "PRESENT",
            "",
            "1",
            1,
            "",
            "",
            "",
            "",
            "",
            1,
            "SCREENING 1",
            -7,
            "TREATMENT",
            "2013-05-07",
            -13
          ],
          [
            163,
            "CDISCPILOT01",
            "QS",
            "01-701-1146",
            1007,
            "MHITM07",
            "SOMATIC COMPLAINTS",
            "MHIS-NACC",
            "",
            "ABSENT",
            "",
            "0",
            0,
            "",
            "",
            "",
            "",
            "",
            1,
            "SCREENING 1",
            -7,
            "TREATMENT",
            "2013-05-07",
            -13
          ],
          [
            164,
            "CDISCPILOT01",
            "QS",
            "01-701-1146",
            1008,
            "MHITM08",
            "EMOTIONAL INCONTINENCE",
            "MHIS-NACC",
            "",
            "ABSENT",
            "",
            "0",
            0,
            "",
            "",
            "",
            "",
            "",
            1,
            "SCREENING 1",
            -7,
            "TREATMENT",
            "2013-05-07",
            -13
          ],
          [
            165,
            "CDISCPILOT01",
            "QS",
            "01-701-1146",
            1009,
            "MHITM09",
            "HISTORY OF HYPERTENSION",
            "MHIS-NACC",
            "",
            "ABSENT",
            "",
            "0",
            0,
            "",
            "",
            "",
            "",
            "",
            1,
            "SCREENING 1",
            -7,
            "TREATMENT",
            "2013-05-07",
            -13
          ],
          [
            166,
            "CDISCPILOT01",
            "QS",
            "01-701-1146",
            1010,
            "MHITM10",
            "HISTORY OF STROKES",
            "MHIS-NACC",
            "",
            "ABSENT",
            "",
            "0",
            0,
            "",
            "",
            "",
            "",
            "",
            1,
            "SCREENING 1",
            -7,
            "TREATMENT",
            "2013-05-07",
            -13
          ],
          [
            167,
            "CDISCPILOT01",
            "QS",
            "01-701-1146",
            1011,
            "MHITM11",
            "EVIDENCE OF ASSOCIATED ATHEROSCLEROSIS",
            "MHIS-NACC",
            "",
            "ABSENT",
            "",
            "0",
            0,
            "",
            "",
            "",
            "",
            "",
            1,
            "SCREENING 1",
            -7,
            "TREATMENT",
            "2013-05-07",
            -13
          ],
          [
            168,
            "CDISCPILOT01",
            "QS",
            "01-701-1146",
            1012,
            "MHITM12",
            "FOCAL NEUROLOGICAL SYMPTOMS",
            "MHIS-NACC",
            "",
            "ABSENT",
            "",
            "0",
            0,
            "",
            "",
            "",
            "",
            "",
            1,
            "SCREENING 1",
            -7,
            "TREATMENT",
            "2013-05-07",
            -13
          ],
          [
            169,
            "CDISCPILOT01",
            "QS",
            "01-701-1146",
            1013,
            "MHITM13",
            "FOCAL NEUROLOGICAL SIGNS",
            "MHIS-NACC",
            "",
            "ABSENT",
            "",
            "0",
            0,
            "",
            "",
            "",
            "",
            "",
            1,
            "SCREENING 1",
            -7,
            "TREATMENT",
            "2013-05-07",
            -13
          ],
          [
            170,
            "CDISCPILOT01",
            "QS",
            "01-701-1148",
            1001,
            "MHITM01",
            "ABRUPT ONSET",
            "MHIS-NACC",
            "",
            "ABSENT",
            "",
            "0",
            0,
            "",
            "",
            "",
            "",
            "",
            1,
            "SCREENING 1",
            -7,
            "TREATMENT",
            "2013-08-14",
            -9
          ],
          [
            171,
            "CDISCPILOT01",
            "QS",
            "01-701-1148",
            1002,
            "MHITM02",
            "STEPWISE DETERIORATION",
            "MHIS-NACC",
            "",
            "ABSENT",
            "",
            "0",
            0,
            "",
            "",
            "",
            "",
            "",
            1,
            "SCREENING 1",
            -7,
            "TREATMENT",
            "2013-08-14",
            -9
          ],
          [
            172,
            "CDISCPILOT01",
            "QS",
            "01-701-1148",
            1003,
            "MHITM03",
            "FLUCTUATING COURSE",
            "MHIS-NACC",
            "",
            "ABSENT",
            "",
            "0",
            0,
            "",
            "",
            "",
            "",
            "",
            1,
            "SCREENING 1",
            -7,
            "TREATMENT",
            "2013-08-14",
            -9
          ],
          [
            173,
            "CDISCPILOT01",
            "QS",
            "01-701-1148",
            1004,
            "MHITM04",
            "NOCTURNAL CONFUSION",
            "MHIS-NACC",
            "",
            "ABSENT",
            "",
            "0",
            0,
            "",
            "",
            "",
            "",
            "",
            1,
            "SCREENING 1",
            -7,
            "TREATMENT",
            "2013-08-14",
            -9
          ],
          [
            174,
            "CDISCPILOT01",
            "QS",
            "01-701-1148",
            1005,
            "MHITM05",
            "RELATIVE PRESERVATION OF PERSONALITY",
            "MHIS-NACC",
            "",
            "ABSENT",
            "",
            "0",
            0,
            "",
            "",
            "",
            "",
            "",
            1,
            "SCREENING 1",
            -7,
            "TREATMENT",
            "2013-08-14",
            -9
          ],
          [
            175,
            "CDISCPILOT01",
            "QS",
            "01-701-1148",
            1006,
            "MHITM06",
            "DEPRESSION",
            "MHIS-NACC",
            "",
            "ABSENT",
            "",
            "0",
            0,
            "",
            "",
            "",
            "",
            "",
            1,
            "SCREENING 1",
            -7,
            "TREATMENT",
            "2013-08-14",
            -9
          ],
          [
            176,
            "CDISCPILOT01",
            "QS",
            "01-701-1148",
            1007,
            "MHITM07",
            "SOMATIC COMPLAINTS",
            "MHIS-NACC",
            "",
            "PRESENT",
            "",
            "1",
            1,
            "",
            "",
            "",
            "",
            "",
            1,
            "SCREENING 1",
            -7,
            "TREATMENT",
            "2013-08-14",
            -9
          ],
          [
            177,
            "CDISCPILOT01",
            "QS",
            "01-701-1148",
            1008,
            "MHITM08",
            "EMOTIONAL INCONTINENCE",
            "MHIS-NACC",
            "",
            "ABSENT",
            "",
            "0",
            0,
            "",
            "",
            "",
            "",
            "",
            1,
            "SCREENING 1",
            -7,
            "TREATMENT",
            "2013-08-14",
            -9
          ],
          [
            178,
            "CDISCPILOT01",
            "QS",
            "01-701-1148",
            1009,
            "MHITM09",
            "HISTORY OF HYPERTENSION",
            "MHIS-NACC",
            "",
            "ABSENT",
            "",
            "0",
            0,
            "",
            "",
            "",
            "",
            "",
            1,
            "SCREENING 1",
            -7,
            "TREATMENT",
            "2013-08-14",
            -9
          ],
          [
            179,
            "CDISCPILOT01",
            "QS",
            "01-701-1148",
            1010,
            "MHITM10",
            "HISTORY OF STROKES",
            "MHIS-NACC",
            "",
            "ABSENT",
            "",
            "0",
            0,
            "",
            "",
            "",
            "",
            "",
            1,
            "SCREENING 1",
            -7,
            "TREATMENT",
            "2013-08-14",
            -9
          ],
          [
            180,
            "CDISCPILOT01",
            "QS",
            "01-701-1148",
            1011,
            "MHITM11",
            "EVIDENCE OF ASSOCIATED ATHEROSCLEROSIS",
            "MHIS-NACC",
            "",
            "ABSENT",
            "",
            "0",
            0,
            "",
            "",
            "",
            "",
            "",
            1,
            "SCREENING 1",
            -7,
            "TREATMENT",
            "2013-08-14",
            -9
          ],
          [
            181,
            "CDISCPILOT01",
            "QS",
            "01-701-1148",
            1012,
            "MHITM12",
            "FOCAL NEUROLOGICAL SYMPTOMS",
            "MHIS-NACC",
            "",
            "ABSENT",
            "",
            "0",
            0,
            "",
            "",
            "",
            "",
            "",
            1,
            "SCREENING 1",
            -7,
            "TREATMENT",
            "2013-08-14",
            -9
          ],
          [
            182,
            "CDISCPILOT01",
            "QS",
            "01-701-1148",
            1013,
            "MHITM13",
            "FOCAL NEUROLOGICAL SIGNS",
            "MHIS-NACC",
            "",
            "ABSENT",
            "",
            "0",
            0,
            "",
            "",
            "",
            "",
            "",
            1,
            "SCREENING 1",
            -7,
            "TREATMENT",
            "2013-08-14",
            -9
          ],
          [
            183,
            "CDISCPILOT01",
            "QS",
            "01-701-1153",
            1001,
            "MHITM01",
            "ABRUPT ONSET",
            "MHIS-NACC",
            "",
            "ABSENT",
            "",
            "0",
            0,
            "",
            "",
            "",
            "",
            "",
            1,
            "SCREENING 1",
            -7,
            "TREATMENT",
            "2013-09-06",
            -17
          ],
          [
            184,
            "CDISCPILOT01",
            "QS",
            "01-701-1153",
            1002,
            "MHITM02",
            "STEPWISE DETERIORATION",
            "MHIS-NACC",
            "",
            "ABSENT",
            "",
            "0",
            0,
            "",
            "",
            "",
            "",
            "",
            1,
            "SCREENING 1",
            -7,
            "TREATMENT",
            "2013-09-06",
            -17
          ],
          [
            185,
            "CDISCPILOT01",
            "QS",
            "01-701-1153",
            1003,
            "MHITM03",
            "FLUCTUATING COURSE",
            "MHIS-NACC",
            "",
            "ABSENT",
            "",
            "0",
            0,
            "",
            "",
            "",
            "",
            "",
            1,
            "SCREENING 1",
            -7,
            "TREATMENT",
            "2013-09-06",
            -17
          ],
          [
            186,
            "CDISCPILOT01",
            "QS",
            "01-701-1153",
            1004,
            "MHITM04",
            "NOCTURNAL CONFUSION",
            "MHIS-NACC",
            "",
            "ABSENT",
            "",
            "0",
            0,
            "",
            "",
            "",
            "",
            "",
            1,
            "SCREENING 1",
            -7,
            "TREATMENT",
            "2013-09-06",
            -17
          ],
          [
            187,
            "CDISCPILOT01",
            "QS",
            "01-701-1153",
            1005,
            "MHITM05",
            "RELATIVE PRESERVATION OF PERSONALITY",
            "MHIS-NACC",
            "",
            "ABSENT",
            "",
            "0",
            0,
            "",
            "",
            "",
            "",
            "",
            1,
            "SCREENING 1",
            -7,
            "TREATMENT",
            "2013-09-06",
            -17
          ],
          [
            188,
            "CDISCPILOT01",
            "QS",
            "01-701-1153",
            1006,
            "MHITM06",
            "DEPRESSION",
            "MHIS-NACC",
            "",
            "ABSENT",
            "",
            "0",
            0,
            "",
            "",
            "",
            "",
            "",
            1,
            "SCREENING 1",
            -7,
            "TREATMENT",
            "2013-09-06",
            -17
          ],
          [
            189,
            "CDISCPILOT01",
            "QS",
            "01-701-1153",
            1007,
            "MHITM07",
            "SOMATIC COMPLAINTS",
            "MHIS-NACC",
            "",
            "PRESENT",
            "",
            "1",
            1,
            "",
            "",
            "",
            "",
            "",
            1,
            "SCREENING 1",
            -7,
            "TREATMENT",
            "2013-09-06",
            -17
          ],
          [
            190,
            "CDISCPILOT01",
            "QS",
            "01-701-1153",
            1008,
            "MHITM08",
            "EMOTIONAL INCONTINENCE",
            "MHIS-NACC",
            "",
            "ABSENT",
            "",
            "0",
            0,
            "",
            "",
            "",
            "",
            "",
            1,
            "SCREENING 1",
            -7,
            "TREATMENT",
            "2013-09-06",
            -17
          ],
          [
            191,
            "CDISCPILOT01",
            "QS",
            "01-701-1153",
            1009,
            "MHITM09",
            "HISTORY OF HYPERTENSION",
            "MHIS-NACC",
            "",
            "ABSENT",
            "",
            "0",
            0,
            "",
            "",
            "",
            "",
            "",
            1,
            "SCREENING 1",
            -7,
            "TREATMENT",
            "2013-09-06",
            -17
          ],
          [
            192,
            "CDISCPILOT01",
            "QS",
            "01-701-1153",
            1010,
            "MHITM10",
            "HISTORY OF STROKES",
            "MHIS-NACC",
            "",
            "ABSENT",
            "",
            "0",
            0,
            "",
            "",
            "",
            "",
            "",
            1,
            "SCREENING 1",
            -7,
            "TREATMENT",
            "2013-09-06",
            -17
          ],
          [
            193,
            "CDISCPILOT01",
            "QS",
            "01-701-1153",
            1011,
            "MHITM11",
            "EVIDENCE OF ASSOCIATED ATHEROSCLEROSIS",
            "MHIS-NACC",
            "",
            "ABSENT",
            "",
            "0",
            0,
            "",
            "",
            "",
            "",
            "",
            1,
            "SCREENING 1",
            -7,
            "TREATMENT",
            "2013-09-06",
            -17
          ],
          [
            194,
            "CDISCPILOT01",
            "QS",
            "01-701-1153",
            1012,
            "MHITM12",
            "FOCAL NEUROLOGICAL SYMPTOMS",
            "MHIS-NACC",
            "",
            "ABSENT",
            "",
            "0",
            0,
            "",
            "",
            "",
            "",
            "",
            1,
            "SCREENING 1",
            -7,
            "TREATMENT",
            "2013-09-06",
            -17
          ],
          [
            195,
            "CDISCPILOT01",
            "QS",
            "01-701-1153",
            1013,
            "MHITM13",
            "FOCAL NEUROLOGICAL SIGNS",
            "MHIS-NACC",
            "",
            "ABSENT",
            "",
            "0",
            0,
            "",
            "",
            "",
            "",
            "",
            1,
            "SCREENING 1",
            -7,
            "TREATMENT",
            "2013-09-06",
            -17
          ],
          [
            196,
            "CDISCPILOT01",
            "QS",
            "01-701-1180",
            1001,
            "MHITM01",
            "ABRUPT ONSET",
            "MHIS-NACC",
            "",
            "ABSENT",
            "",
            "0",
            0,
            "",
            "",
            "",
            "",
            "",
            1,
            "SCREENING 1",
            -7,
            "TREATMENT",
            "2013-01-28",
            -15
          ],
          [
            197,
            "CDISCPILOT01",
            "QS",
            "01-701-1180",
            1002,
            "MHITM02",
            "STEPWISE DETERIORATION",
            "MHIS-NACC",
            "",
            "ABSENT",
            "",
            "0",
            0,
            "",
            "",
            "",
            "",
            "",
            1,
            "SCREENING 1",
            -7,
            "TREATMENT",
            "2013-01-28",
            -15
          ],
          [
            198,
            "CDISCPILOT01",
            "QS",
            "01-701-1180",
            1003,
            "MHITM03",
            "FLUCTUATING COURSE",
            "MHIS-NACC",
            "",
            "ABSENT",
            "",
            "0",
            0,
            "",
            "",
            "",
            "",
            "",
            1,
            "SCREENING 1",
            -7,
            "TREATMENT",
            "2013-01-28",
            -15
          ],
          [
            199,
            "CDISCPILOT01",
            "QS",
            "01-701-1180",
            1004,
            "MHITM04",
            "NOCTURNAL CONFUSION",
            "MHIS-NACC",
            "",
            "ABSENT",
            "",
            "0",
            0,
            "",
            "",
            "",
            "",
            "",
            1,
            "SCREENING 1",
            -7,
            "TREATMENT",
            "2013-01-28",
            -15
          ],
          [
            200,
            "CDISCPILOT01",
            "QS",
            "01-701-1180",
            1005,
            "MHITM05",
            "RELATIVE PRESERVATION OF PERSONALITY",
            "MHIS-NACC",
            "",
            "ABSENT",
            "",
            "0",
            0,
            "",
            "",
            "",
            "",
            "",
            1,
            "SCREENING 1",
            -7,
            "TREATMENT",
            "2013-01-28",
            -15
          ],
          [
            201,
            "CDISCPILOT01",
            "QS",
            "01-701-1180",
            1006,
            "MHITM06",
            "DEPRESSION",
            "MHIS-NACC",
            "",
            "ABSENT",
            "",
            "0",
            0,
            "",
            "",
            "",
            "",
            "",
            1,
            "SCREENING 1",
            -7,
            "TREATMENT",
            "2013-01-28",
            -15
          ],
          [
            202,
            "CDISCPILOT01",
            "QS",
            "01-701-1180",
            1007,
            "MHITM07",
            "SOMATIC COMPLAINTS",
            "MHIS-NACC",
            "",
            "PRESENT",
            "",
            "1",
            1,
            "",
            "",
            "",
            "",
            "",
            1,
            "SCREENING 1",
            -7,
            "TREATMENT",
            "2013-01-28",
            -15
          ],
          [
            203,
            "CDISCPILOT01",
            "QS",
            "01-701-1180",
            1008,
            "MHITM08",
            "EMOTIONAL INCONTINENCE",
            "MHIS-NACC",
            "",
            "ABSENT",
            "",
            "0",
            0,
            "",
            "",
            "",
            "",
            "",
            1,
            "SCREENING 1",
            -7,
            "TREATMENT",
            "2013-01-28",
            -15
          ],
          [
            204,
            "CDISCPILOT01",
            "QS",
            "01-701-1180",
            1009,
            "MHITM09",
            "HISTORY OF HYPERTENSION",
            "MHIS-NACC",
            "",
            "ABSENT",
            "",
            "0",
            0,
            "",
            "",
            "",
            "",
            "",
            1,
            "SCREENING 1",
            -7,
            "TREATMENT",
            "2013-01-28",
            -15
          ],
          [
            205,
            "CDISCPILOT01",
            "QS",
            "01-701-1180",
            1010,
            "MHITM10",
            "HISTORY OF STROKES",
            "MHIS-NACC",
            "",
            "ABSENT",
            "",
            "0",
            0,
            "",
            "",
            "",
            "",
            "",
            1,
            "SCREENING 1",
            -7,
            "TREATMENT",
            "2013-01-28",
            -15
          ],
          [
            206,
            "CDISCPILOT01",
            "QS",
            "01-701-1180",
            1011,
            "MHITM11",
            "EVIDENCE OF ASSOCIATED ATHEROSCLEROSIS",
            "MHIS-NACC",
            "",
            "ABSENT",
            "",
            "0",
            0,
            "",
            "",
            "",
            "",
            "",
            1,
            "SCREENING 1",
            -7,
            "TREATMENT",
            "2013-01-28",
            -15
          ],
          [
            207,
            "CDISCPILOT01",
            "QS",
            "01-701-1180",
            1012,
            "MHITM12",
            "FOCAL NEUROLOGICAL SYMPTOMS",
            "MHIS-NACC",
            "",
            "ABSENT",
            "",
            "0",
            0,
            "",
            "",
            "",
            "",
            "",
            1,
            "SCREENING 1",
            -7,
            "TREATMENT",
            "2013-01-28",
            -15
          ],
          [
            208,
            "CDISCPILOT01",
            "QS",
            "01-701-1180",
            1013,
            "MHITM13",
            "FOCAL NEUROLOGICAL SIGNS",
            "MHIS-NACC",
            "",
            "ABSENT",
            "",
            "0",
            0,
            "",
            "",
            "",
            "",
            "",
            1,
            "SCREENING 1",
            -7,
            "TREATMENT",
            "2013-01-28",
            -15
          ],
          [
            209,
            "CDISCPILOT01",
            "QS",
            "01-701-1181",
            1001,
            "MHITM01",
            "ABRUPT ONSET",
            "MHIS-NACC",
            "",
            "ABSENT",
            "",
            "0",
            0,
            "",
            "",
            "",
            "",
            "",
            1,
            "SCREENING 1",
            -7,
            "TREATMENT",
            "2013-11-26",
            -9
          ],
          [
            210,
            "CDISCPILOT01",
            "QS",
            "01-701-1181",
            1002,
            "MHITM02",
            "STEPWISE DETERIORATION",
            "MHIS-NACC",
            "",
            "ABSENT",
            "",
            "0",
            0,
            "",
            "",
            "",
            "",
            "",
            1,
            "SCREENING 1",
            -7,
            "TREATMENT",
            "2013-11-26",
            -9
          ],
          [
            211,
            "CDISCPILOT01",
            "QS",
            "01-701-1181",
            1003,
            "MHITM03",
            "FLUCTUATING COURSE",
            "MHIS-NACC",
            "",
            "ABSENT",
            "",
            "0",
            0,
            "",
            "",
            "",
            "",
            "",
            1,
            "SCREENING 1",
            -7,
            "TREATMENT",
            "2013-11-26",
            -9
          ],
          [
            212,
            "CDISCPILOT01",
            "QS",
            "01-701-1181",
            1004,
            "MHITM04",
            "NOCTURNAL CONFUSION",
            "MHIS-NACC",
            "",
            "PRESENT",
            "",
            "1",
            1,
            "",
            "",
            "",
            "",
            "",
            1,
            "SCREENING 1",
            -7,
            "TREATMENT",
            "2013-11-26",
            -9
          ],
          [
            213,
            "CDISCPILOT01",
            "QS",
            "01-701-1181",
            1005,
            "MHITM05",
            "RELATIVE PRESERVATION OF PERSONALITY",
            "MHIS-NACC",
            "",
            "ABSENT",
            "",
            "0",
            0,
            "",
            "",
            "",
            "",
            "",
            1,
            "SCREENING 1",
            -7,
            "TREATMENT",
            "2013-11-26",
            -9
          ],
          [
            214,
            "CDISCPILOT01",
            "QS",
            "01-701-1181",
            1006,
            "MHITM06",
            "DEPRESSION",
            "MHIS-NACC",
            "",
            "ABSENT",
            "",
            "0",
            0,
            "",
            "",
            "",
            "",
            "",
            1,
            "SCREENING 1",
            -7,
            "TREATMENT",
            "2013-11-26",
            -9
          ],
          [
            215,
            "CDISCPILOT01",
            "QS",
            "01-701-1181",
            1007,
            "MHITM07",
            "SOMATIC COMPLAINTS",
            "MHIS-NACC",
            "",
            "PRESENT",
            "",
            "1",
            1,
            "",
            "",
            "",
            "",
            "",
            1,
            "SCREENING 1",
            -7,
            "TREATMENT",
            "2013-11-26",
            -9
          ],
          [
            216,
            "CDISCPILOT01",
            "QS",
            "01-701-1181",
            1008,
            "MHITM08",
            "EMOTIONAL INCONTINENCE",
            "MHIS-NACC",
            "",
            "ABSENT",
            "",
            "0",
            0,
            "",
            "",
            "",
            "",
            "",
            1,
            "SCREENING 1",
            -7,
            "TREATMENT",
            "2013-11-26",
            -9
          ],
          [
            217,
            "CDISCPILOT01",
            "QS",
            "01-701-1181",
            1009,
            "MHITM09",
            "HISTORY OF HYPERTENSION",
            "MHIS-NACC",
            "",
            "ABSENT",
            "",
            "0",
            0,
            "",
            "",
            "",
            "",
            "",
            1,
            "SCREENING 1",
            -7,
            "TREATMENT",
            "2013-11-26",
            -9
          ],
          [
            218,
            "CDISCPILOT01",
            "QS",
            "01-701-1181",
            1010,
            "MHITM10",
            "HISTORY OF STROKES",
            "MHIS-NACC",
            "",
            "ABSENT",
            "",
            "0",
            0,
            "",
            "",
            "",
            "",
            "",
            1,
            "SCREENING 1",
            -7,
            "TREATMENT",
            "2013-11-26",
            -9
          ],
          [
            219,
            "CDISCPILOT01",
            "QS",
            "01-701-1181",
            1011,
            "MHITM11",
            "EVIDENCE OF ASSOCIATED ATHEROSCLEROSIS",
            "MHIS-NACC",
            "",
            "ABSENT",
            "",
            "0",
            0,
            "",
            "",
            "",
            "",
            "",
            1,
            "SCREENING 1",
            -7,
            "TREATMENT",
            "2013-11-26",
            -9
          ],
          [
            220,
            "CDISCPILOT01",
            "QS",
            "01-701-1181",
            1012,
            "MHITM12",
            "FOCAL NEUROLOGICAL SYMPTOMS",
            "MHIS-NACC",
            "",
            "ABSENT",
            "",
            "0",
            0,
            "",
            "",
            "",
            "",
            "",
            1,
            "SCREENING 1",
            -7,
            "TREATMENT",
            "2013-11-26",
            -9
          ],
          [
            221,
            "CDISCPILOT01",
            "QS",
            "01-701-1181",
            1013,
            "MHITM13",
            "FOCAL NEUROLOGICAL SIGNS",
            "MHIS-NACC",
            "",
            "ABSENT",
            "",
            "0",
            0,
            "",
            "",
            "",
            "",
            "",
            1,
            "SCREENING 1",
            -7,
            "TREATMENT",
            "2013-11-26",
            -9
          ],
          [
            222,
            "CDISCPILOT01",
            "QS",
            "01-701-1188",
            1001,
            "MHITM01",
            "ABRUPT ONSET",
            "MHIS-NACC",
            "",
            "ABSENT",
            "",
            "0",
            0,
            "",
            "",
            "",
            "",
            "",
            1,
            "SCREENING 1",
            -7,
            "TREATMENT",
            "2013-02-03",
            -12
          ],
          [
            223,
            "CDISCPILOT01",
            "QS",
            "01-701-1188",
            1002,
            "MHITM02",
            "STEPWISE DETERIORATION",
            "MHIS-NACC",
            "",
            "ABSENT",
            "",
            "0",
            0,
            "",
            "",
            "",
            "",
            "",
            1,
            "SCREENING 1",
            -7,
            "TREATMENT",
            "2013-02-03",
            -12
          ],
          [
            224,
            "CDISCPILOT01",
            "QS",
            "01-701-1188",
            1003,
            "MHITM03",
            "FLUCTUATING COURSE",
            "MHIS-NACC",
            "",
            "ABSENT",
            "",
            "0",
            0,
            "",
            "",
            "",
            "",
            "",
            1,
            "SCREENING 1",
            -7,
            "TREATMENT",
            "2013-02-03",
            -12
          ],
          [
            225,
            "CDISCPILOT01",
            "QS",
            "01-701-1188",
            1004,
            "MHITM04",
            "NOCTURNAL CONFUSION",
            "MHIS-NACC",
            "",
            "ABSENT",
            "",
            "0",
            0,
            "",
            "",
            "",
            "",
            "",
            1,
            "SCREENING 1",
            -7,
            "TREATMENT",
            "2013-02-03",
            -12
          ],
          [
            226,
            "CDISCPILOT01",
            "QS",
            "01-701-1188",
            1005,
            "MHITM05",
            "RELATIVE PRESERVATION OF PERSONALITY",
            "MHIS-NACC",
            "",
            "ABSENT",
            "",
            "0",
            0,
            "",
            "",
            "",
            "",
            "",
            1,
            "SCREENING 1",
            -7,
            "TREATMENT",
            "2013-02-03",
            -12
          ],
          [
            227,
            "CDISCPILOT01",
            "QS",
            "01-701-1188",
            1006,
            "MHITM06",
            "DEPRESSION",
            "MHIS-NACC",
            "",
            "ABSENT",
            "",
            "0",
            0,
            "",
            "",
            "",
            "",
            "",
            1,
            "SCREENING 1",
            -7,
            "TREATMENT",
            "2013-02-03",
            -12
          ],
          [
            228,
            "CDISCPILOT01",
            "QS",
            "01-701-1188",
            1007,
            "MHITM07",
            "SOMATIC COMPLAINTS",
            "MHIS-NACC",
            "",
            "ABSENT",
            "",
            "0",
            0,
            "",
            "",
            "",
            "",
            "",
            1,
            "SCREENING 1",
            -7,
            "TREATMENT",
            "2013-02-03",
            -12
          ],
          [
            229,
            "CDISCPILOT01",
            "QS",
            "01-701-1188",
            1008,
            "MHITM08",
            "EMOTIONAL INCONTINENCE",
            "MHIS-NACC",
            "",
            "ABSENT",
            "",
            "0",
            0,
            "",
            "",
            "",
            "",
            "",
            1,
            "SCREENING 1",
            -7,
            "TREATMENT",
            "2013-02-03",
            -12
          ],
          [
            230,
            "CDISCPILOT01",
            "QS",
            "01-701-1188",
            1009,
            "MHITM09",
            "HISTORY OF HYPERTENSION",
            "MHIS-NACC",
            "",
            "ABSENT",
            "",
            "0",
            0,
            "",
            "",
            "",
            "",
            "",
            1,
            "SCREENING 1",
            -7,
            "TREATMENT",
            "2013-02-03",
            -12
          ],
          [
            231,
            "CDISCPILOT01",
            "QS",
            "01-701-1188",
            1010,
            "MHITM10",
            "HISTORY OF STROKES",
            "MHIS-NACC",
            "",
            "ABSENT",
            "",
            "0",
            0,
            "",
            "",
            "",
            "",
            "",
            1,
            "SCREENING 1",
            -7,
            "TREATMENT",
            "2013-02-03",
            -12
          ],
          [
            232,
            "CDISCPILOT01",
            "QS",
            "01-701-1188",
            1011,
            "MHITM11",
            "EVIDENCE OF ASSOCIATED ATHEROSCLEROSIS",
            "MHIS-NACC",
            "",
            "ABSENT",
            "",
            "0",
            0,
            "",
            "",
            "",
            "",
            "",
            1,
            "SCREENING 1",
            -7,
            "TREATMENT",
            "2013-02-03",
            -12
          ],
          [
            233,
            "CDISCPILOT01",
            "QS",
            "01-701-1188",
            1012,
            "MHITM12",
            "FOCAL NEUROLOGICAL SYMPTOMS",
            "MHIS-NACC",
            "",
            "ABSENT",
            "",
            "0",
            0,
            "",
            "",
            "",
            "",
            "",
            1,
            "SCREENING 1",
            -7,
            "TREATMENT",
            "2013-02-03",
            -12
          ],
          [
            234,
            "CDISCPILOT01",
            "QS",
            "01-701-1188",
            1013,
            "MHITM13",
            "FOCAL NEUROLOGICAL SIGNS",
            "MHIS-NACC",
            "",
            "ABSENT",
            "",
            "0",
            0,
            "",
            "",
            "",
            "",
            "",
            1,
            "SCREENING 1",
            -7,
            "TREATMENT",
            "2013-02-03",
            -12
          ],
          [
            235,
            "CDISCPILOT01",
            "QS",
            "01-701-1192",
            1001,
            "MHITM01",
            "ABRUPT ONSET",
            "MHIS-NACC",
            "",
            "ABSENT",
            "",
            "0",
            0,
            "",
            "",
            "",
            "",
            "",
            1,
            "SCREENING 1",
            -7,
            "TREATMENT",
            "2012-07-08",
            -14
          ],
          [
            236,
            "CDISCPILOT01",
            "QS",
            "01-701-1192",
            1002,
            "MHITM02",
            "STEPWISE DETERIORATION",
            "MHIS-NACC",
            "",
            "ABSENT",
            "",
            "0",
            0,
            "",
            "",
            "",
            "",
            "",
            1,
            "SCREENING 1",
            -7,
            "TREATMENT",
            "2012-07-08",
            -14
          ],
          [
            237,
            "CDISCPILOT01",
            "QS",
            "01-701-1192",
            1003,
            "MHITM03",
            "FLUCTUATING COURSE",
            "MHIS-NACC",
            "",
            "ABSENT",
            "",
            "0",
            0,
            "",
            "",
            "",
            "",
            "",
            1,
            "SCREENING 1",
            -7,
            "TREATMENT",
            "2012-07-08",
            -14
          ],
          [
            238,
            "CDISCPILOT01",
            "QS",
            "01-701-1192",
            1004,
            "MHITM04",
            "NOCTURNAL CONFUSION",
            "MHIS-NACC",
            "",
            "ABSENT",
            "",
            "0",
            0,
            "",
            "",
            "",
            "",
            "",
            1,
            "SCREENING 1",
            -7,
            "TREATMENT",
            "2012-07-08",
            -14
          ],
          [
            239,
            "CDISCPILOT01",
            "QS",
            "01-701-1192",
            1005,
            "MHITM05",
            "RELATIVE PRESERVATION OF PERSONALITY",
            "MHIS-NACC",
            "",
            "ABSENT",
            "",
            "0",
            0,
            "",
            "",
            "",
            "",
            "",
            1,
            "SCREENING 1",
            -7,
            "TREATMENT",
            "2012-07-08",
            -14
          ],
          [
            240,
            "CDISCPILOT01",
            "QS",
            "01-701-1192",
            1006,
            "MHITM06",
            "DEPRESSION",
            "MHIS-NACC",
            "",
            "ABSENT",
            "",
            "0",
            0,
            "",
            "",
            "",
            "",
            "",
            1,
            "SCREENING 1",
            -7,
            "TREATMENT",
            "2012-07-08",
            -14
          ],
          [
            241,
            "CDISCPILOT01",
            "QS",
            "01-701-1192",
            1007,
            "MHITM07",
            "SOMATIC COMPLAINTS",
            "MHIS-NACC",
            "",
            "ABSENT",
            "",
            "0",
            0,
            "",
            "",
            "",
            "",
            "",
            1,
            "SCREENING 1",
            -7,
            "TREATMENT",
            "2012-07-08",
            -14
          ],
          [
            242,
            "CDISCPILOT01",
            "QS",
            "01-701-1192",
            1008,
            "MHITM08",
            "EMOTIONAL INCONTINENCE",
            "MHIS-NACC",
            "",
            "ABSENT",
            "",
            "0",
            0,
            "",
            "",
            "",
            "",
            "",
            1,
            "SCREENING 1",
            -7,
            "TREATMENT",
            "2012-07-08",
            -14
          ],
          [
            243,
            "CDISCPILOT01",
            "QS",
            "01-701-1192",
            1009,
            "MHITM09",
            "HISTORY OF HYPERTENSION",
            "MHIS-NACC",
            "",
            "ABSENT",
            "",
            "0",
            0,
            "",
            "",
            "",
            "",
            "",
            1,
            "SCREENING 1",
            -7,
            "TREATMENT",
            "2012-07-08",
            -14
          ],
          [
            244,
            "CDISCPILOT01",
            "QS",
            "01-701-1192",
            1010,
            "MHITM10",
            "HISTORY OF STROKES",
            "MHIS-NACC",
            "",
            "ABSENT",
            "",
            "0",
            0,
            "",
            "",
            "",
            "",
            "",
            1,
            "SCREENING 1",
            -7,
            "TREATMENT",
            "2012-07-08",
            -14
          ],
          [
            245,
            "CDISCPILOT01",
            "QS",
            "01-701-1192",
            1011,
            "MHITM11",
            "EVIDENCE OF ASSOCIATED ATHEROSCLEROSIS",
            "MHIS-NACC",
            "",
            "ABSENT",
            "",
            "0",
            0,
            "",
            "",
            "",
            "",
            "",
            1,
            "SCREENING 1",
            -7,
            "TREATMENT",
            "2012-07-08",
            -14
          ],
          [
            246,
            "CDISCPILOT01",
            "QS",
            "01-701-1192",
            1012,
            "MHITM12",
            "FOCAL NEUROLOGICAL SYMPTOMS",
            "MHIS-NACC",
            "",
            "ABSENT",
            "",
            "0",
            0,
            "",
            "",
            "",
            "",
            "",
            1,
            "SCREENING 1",
            -7,
            "TREATMENT",
            "2012-07-08",
            -14
          ],
          [
            247,
            "CDISCPILOT01",
            "QS",
            "01-701-1192",
            1013,
            "MHITM13",
            "FOCAL NEUROLOGICAL SIGNS",
            "MHIS-NACC",
            "",
            "ABSENT",
            "",
            "0",
            0,
            "",
            "",
            "",
            "",
            "",
            1,
            "SCREENING 1",
            -7,
            "TREATMENT",
            "2012-07-08",
            -14
          ],
          [
            248,
            "CDISCPILOT01",
            "QS",
            "01-701-1203",
            1001,
            "MHITM01",
            "ABRUPT ONSET",
            "MHIS-NACC",
            "",
            "ABSENT",
            "",
            "0",
            0,
            "",
            "",
            "",
            "",
            "",
            1,
            "SCREENING 1",
            -7,
            "TREATMENT",
            "2013-01-25",
            -8
          ],
          [
            249,
            "CDISCPILOT01",
            "QS",
            "01-701-1203",
            1002,
            "MHITM02",
            "STEPWISE DETERIORATION",
            "MHIS-NACC",
            "",
            "ABSENT",
            "",
            "0",
            0,
            "",
            "",
            "",
            "",
            "",
            1,
            "SCREENING 1",
            -7,
            "TREATMENT",
            "2013-01-25",
            -8
          ],
          [
            250,
            "CDISCPILOT01",
            "QS",
            "01-701-1203",
            1003,
            "MHITM03",
            "FLUCTUATING COURSE",
            "MHIS-NACC",
            "",
            "ABSENT",
            "",
            "0",
            0,
            "",
            "",
            "",
            "",
            "",
            1,
            "SCREENING 1",
            -7,
            "TREATMENT",
            "2013-01-25",
            -8
          ],
          [
            251,
            "CDISCPILOT01",
            "QS",
            "01-701-1203",
            1004,
            "MHITM04",
            "NOCTURNAL CONFUSION",
            "MHIS-NACC",
            "",
            "ABSENT",
            "",
            "0",
            0,
            "",
            "",
            "",
            "",
            "",
            1,
            "SCREENING 1",
            -7,
            "TREATMENT",
            "2013-01-25",
            -8
          ],
          [
            252,
            "CDISCPILOT01",
            "QS",
            "01-701-1203",
            1005,
            "MHITM05",
            "RELATIVE PRESERVATION OF PERSONALITY",
            "MHIS-NACC",
            "",
            "ABSENT",
            "",
            "0",
            0,
            "",
            "",
            "",
            "",
            "",
            1,
            "SCREENING 1",
            -7,
            "TREATMENT",
            "2013-01-25",
            -8
          ],
          [
            253,
            "CDISCPILOT01",
            "QS",
            "01-701-1203",
            1006,
            "MHITM06",
            "DEPRESSION",
            "MHIS-NACC",
            "",
            "ABSENT",
            "",
            "0",
            0,
            "",
            "",
            "",
            "",
            "",
            1,
            "SCREENING 1",
            -7,
            "TREATMENT",
            "2013-01-25",
            -8
          ],
          [
            254,
            "CDISCPILOT01",
            "QS",
            "01-701-1203",
            1007,
            "MHITM07",
            "SOMATIC COMPLAINTS",
            "MHIS-NACC",
            "",
            "ABSENT",
            "",
            "0",
            0,
            "",
            "",
            "",
            "",
            "",
            1,
            "SCREENING 1",
            -7,
            "TREATMENT",
            "2013-01-25",
            -8
          ],
          [
            255,
            "CDISCPILOT01",
            "QS",
            "01-701-1203",
            1008,
            "MHITM08",
            "EMOTIONAL INCONTINENCE",
            "MHIS-NACC",
            "",
            "ABSENT",
            "",
            "0",
            0,
            "",
            "",
            "",
            "",
            "",
            1,
            "SCREENING 1",
            -7,
            "TREATMENT",
            "2013-01-25",
            -8
          ],
          [
            256,
            "CDISCPILOT01",
            "QS",
            "01-701-1203",
            1009,
            "MHITM09",
            "HISTORY OF HYPERTENSION",
            "MHIS-NACC",
            "",
            "ABSENT",
            "",
            "0",
            0,
            "",
            "",
            "",
            "",
            "",
            1,
            "SCREENING 1",
            -7,
            "TREATMENT",
            "2013-01-25",
            -8
          ],
          [
            257,
            "CDISCPILOT01",
            "QS",
            "01-701-1203",
            1010,
            "MHITM10",
            "HISTORY OF STROKES",
            "MHIS-NACC",
            "",
            "ABSENT",
            "",
            "0",
            0,
            "",
            "",
            "",
            "",
            "",
            1,
            "SCREENING 1",
            -7,
            "TREATMENT",
            "2013-01-25",
            -8
          ],
          [
            258,
            "CDISCPILOT01",
            "QS",
            "01-701-1203",
            1011,
            "MHITM11",
            "EVIDENCE OF ASSOCIATED ATHEROSCLEROSIS",
            "MHIS-NACC",
            "",
            "ABSENT",
            "",
            "0",
            0,
            "",
            "",
            "",
            "",
            "",
            1,
            "SCREENING 1",
            -7,
            "TREATMENT",
            "2013-01-25",
            -8
          ],
          [
            259,
            "CDISCPILOT01",
            "QS",
            "01-701-1203",
            1012,
            "MHITM12",
            "FOCAL NEUROLOGICAL SYMPTOMS",
            "MHIS-NACC",
            "",
            "ABSENT",
            "",
            "0",
            0,
            "",
            "",
            "",
            "",
            "",
            1,
            "SCREENING 1",
            -7,
            "TREATMENT",
            "2013-01-25",
            -8
          ],
          [
            260,
            "CDISCPILOT01",
            "QS",
            "01-701-1203",
            1013,
            "MHITM13",
            "FOCAL NEUROLOGICAL SIGNS",
            "MHIS-NACC",
            "",
            "ABSENT",
            "",
            "0",
            0,
            "",
            "",
            "",
            "",
            "",
            1,
            "SCREENING 1",
            -7,
            "TREATMENT",
            "2013-01-25",
            -8
          ],
          [
            261,
            "CDISCPILOT01",
            "QS",
            "01-701-1211",
            1001,
            "MHITM01",
            "ABRUPT ONSET",
            "MHIS-NACC",
            "",
            "ABSENT",
            "",
            "0",
            0,
            "",
            "",
            "",
            "",
            "",
            1,
            "SCREENING 1",
            -7,
            "TREATMENT",
            "2012-10-30",
            -16
          ],
          [
            262,
            "CDISCPILOT01",
            "QS",
            "01-701-1211",
            1002,
            "MHITM02",
            "STEPWISE DETERIORATION",
            "MHIS-NACC",
            "",
            "ABSENT",
            "",
            "0",
            0,
            "",
            "",
            "",
            "",
            "",
            1,
            "SCREENING 1",
            -7,
            "TREATMENT",
            "2012-10-30",
            -16
          ],
          [
            263,
            "CDISCPILOT01",
            "QS",
            "01-701-1211",
            1003,
            "MHITM03",
            "FLUCTUATING COURSE",
            "MHIS-NACC",
            "",
            "ABSENT",
            "",
            "0",
            0,
            "",
            "",
            "",
            "",
            "",
            1,
            "SCREENING 1",
            -7,
            "TREATMENT",
            "2012-10-30",
            -16
          ],
          [
            264,
            "CDISCPILOT01",
            "QS",
            "01-701-1211",
            1004,
            "MHITM04",
            "NOCTURNAL CONFUSION",
            "MHIS-NACC",
            "",
            "ABSENT",
            "",
            "0",
            0,
            "",
            "",
            "",
            "",
            "",
            1,
            "SCREENING 1",
            -7,
            "TREATMENT",
            "2012-10-30",
            -16
          ],
          [
            265,
            "CDISCPILOT01",
            "QS",
            "01-701-1211",
            1005,
            "MHITM05",
            "RELATIVE PRESERVATION OF PERSONALITY",
            "MHIS-NACC",
            "",
            "ABSENT",
            "",
            "0",
            0,
            "",
            "",
            "",
            "",
            "",
            1,
            "SCREENING 1",
            -7,
            "TREATMENT",
            "2012-10-30",
            -16
          ],
          [
            266,
            "CDISCPILOT01",
            "QS",
            "01-701-1211",
            1006,
            "MHITM06",
            "DEPRESSION",
            "MHIS-NACC",
            "",
            "ABSENT",
            "",
            "0",
            0,
            "",
            "",
            "",
            "",
            "",
            1,
            "SCREENING 1",
            -7,
            "TREATMENT",
            "2012-10-30",
            -16
          ],
          [
            267,
            "CDISCPILOT01",
            "QS",
            "01-701-1211",
            1007,
            "MHITM07",
            "SOMATIC COMPLAINTS",
            "MHIS-NACC",
            "",
            "ABSENT",
            "",
            "0",
            0,
            "",
            "",
            "",
            "",
            "",
            1,
            "SCREENING 1",
            -7,
            "TREATMENT",
            "2012-10-30",
            -16
          ],
          [
            268,
            "CDISCPILOT01",
            "QS",
            "01-701-1211",
            1008,
            "MHITM08",
            "EMOTIONAL INCONTINENCE",
            "MHIS-NACC",
            "",
            "ABSENT",
            "",
            "0",
            0,
            "",
            "",
            "",
            "",
            "",
            1,
            "SCREENING 1",
            -7,
            "TREATMENT",
            "2012-10-30",
            -16
          ],
          [
            269,
            "CDISCPILOT01",
            "QS",
            "01-701-1211",
            1009,
            "MHITM09",
            "HISTORY OF HYPERTENSION",
            "MHIS-NACC",
            "",
            "ABSENT",
            "",
            "0",
            0,
            "",
            "",
            "",
            "",
            "",
            1,
            "SCREENING 1",
            -7,
            "TREATMENT",
            "2012-10-30",
            -16
          ],
          [
            270,
            "CDISCPILOT01",
            "QS",
            "01-701-1211",
            1010,
            "MHITM10",
            "HISTORY OF STROKES",
            "MHIS-NACC",
            "",
            "ABSENT",
            "",
            "0",
            0,
            "",
            "",
            "",
            "",
            "",
            1,
            "SCREENING 1",
            -7,
            "TREATMENT",
            "2012-10-30",
            -16
          ],
          [
            271,
            "CDISCPILOT01",
            "QS",
            "01-701-1211",
            1011,
            "MHITM11",
            "EVIDENCE OF ASSOCIATED ATHEROSCLEROSIS",
            "MHIS-NACC",
            "",
            "ABSENT",
            "",
            "0",
            0,
            "",
            "",
            "",
            "",
            "",
            1,
            "SCREENING 1",
            -7,
            "TREATMENT",
            "2012-10-30",
            -16
          ],
          [
            272,
            "CDISCPILOT01",
            "QS",
            "01-701-1211",
            1012,
            "MHITM12",
            "FOCAL NEUROLOGICAL SYMPTOMS",
            "MHIS-NACC",
            "",
            "ABSENT",
            "",
            "0",
            0,
            "",
            "",
            "",
            "",
            "",
            1,
            "SCREENING 1",
            -7,
            "TREATMENT",
            "2012-10-30",
            -16
          ],
          [
            273,
            "CDISCPILOT01",
            "QS",
            "01-701-1211",
            1013,
            "MHITM13",
            "FOCAL NEUROLOGICAL SIGNS",
            "MHIS-NACC",
            "",
            "ABSENT",
            "",
            "0",
            0,
            "",
            "",
            "",
            "",
            "",
            1,
            "SCREENING 1",
            -7,
            "TREATMENT",
            "2012-10-30",
            -16
          ],
          [
            274,
            "CDISCPILOT01",
            "QS",
            "01-701-1234",
            1001,
            "MHITM01",
            "ABRUPT ONSET",
            "MHIS-NACC",
            "",
            "ABSENT",
            "",
            "0",
            0,
            "",
            "",
            "",
            "",
            "",
            1,
            "SCREENING 1",
            -7,
            "TREATMENT",
            "2013-03-20",
            -10
          ],
          [
            275,
            "CDISCPILOT01",
            "QS",
            "01-701-1234",
            1002,
            "MHITM02",
            "STEPWISE DETERIORATION",
            "MHIS-NACC",
            "",
            "ABSENT",
            "",
            "0",
            0,
            "",
            "",
            "",
            "",
            "",
            1,
            "SCREENING 1",
            -7,
            "TREATMENT",
            "2013-03-20",
            -10
          ],
          [
            276,
            "CDISCPILOT01",
            "QS",
            "01-701-1234",
            1003,
            "MHITM03",
            "FLUCTUATING COURSE",
            "MHIS-NACC",
            "",
            "ABSENT",
            "",
            "0",
            0,
            "",
            "",
            "",
            "",
            "",
            1,
            "SCREENING 1",
            -7,
            "TREATMENT",
            "2013-03-20",
            -10
          ],
          [
            277,
            "CDISCPILOT01",
            "QS",
            "01-701-1234",
            1004,
            "MHITM04",
            "NOCTURNAL CONFUSION",
            "MHIS-NACC",
            "",
            "ABSENT",
            "",
            "0",
            0,
            "",
            "",
            "",
            "",
            "",
            1,
            "SCREENING 1",
            -7,
            "TREATMENT",
            "2013-03-20",
            -10
          ],
          [
            278,
            "CDISCPILOT01",
            "QS",
            "01-701-1234",
            1005,
            "MHITM05",
            "RELATIVE PRESERVATION OF PERSONALITY",
            "MHIS-NACC",
            "",
            "ABSENT",
            "",
            "0",
            0,
            "",
            "",
            "",
            "",
            "",
            1,
            "SCREENING 1",
            -7,
            "TREATMENT",
            "2013-03-20",
            -10
          ],
          [
            279,
            "CDISCPILOT01",
            "QS",
            "01-701-1234",
            1006,
            "MHITM06",
            "DEPRESSION",
            "MHIS-NACC",
            "",
            "ABSENT",
            "",
            "0",
            0,
            "",
            "",
            "",
            "",
            "",
            1,
            "SCREENING 1",
            -7,
            "TREATMENT",
            "2013-03-20",
            -10
          ],
          [
            280,
            "CDISCPILOT01",
            "QS",
            "01-701-1234",
            1007,
            "MHITM07",
            "SOMATIC COMPLAINTS",
            "MHIS-NACC",
            "",
            "ABSENT",
            "",
            "0",
            0,
            "",
            "",
            "",
            "",
            "",
            1,
            "SCREENING 1",
            -7,
            "TREATMENT",
            "2013-03-20",
            -10
          ],
          [
            281,
            "CDISCPILOT01",
            "QS",
            "01-701-1234",
            1008,
            "MHITM08",
            "EMOTIONAL INCONTINENCE",
            "MHIS-NACC",
            "",
            "ABSENT",
            "",
            "0",
            0,
            "",
            "",
            "",
            "",
            "",
            1,
            "SCREENING 1",
            -7,
            "TREATMENT",
            "2013-03-20",
            -10
          ],
          [
            282,
            "CDISCPILOT01",
            "QS",
            "01-701-1234",
            1009,
            "MHITM09",
            "HISTORY OF HYPERTENSION",
            "MHIS-NACC",
            "",
            "ABSENT",
            "",
            "0",
            0,
            "",
            "",
            "",
            "",
            "",
            1,
            "SCREENING 1",
            -7,
            "TREATMENT",
            "2013-03-20",
            -10
          ],
          [
            283,
            "CDISCPILOT01",
            "QS",
            "01-701-1234",
            1010,
            "MHITM10",
            "HISTORY OF STROKES",
            "MHIS-NACC",
            "",
            "ABSENT",
            "",
            "0",
            0,
            "",
            "",
            "",
            "",
            "",
            1,
            "SCREENING 1",
            -7,
            "TREATMENT",
            "2013-03-20",
            -10
          ],
          [
            284,
            "CDISCPILOT01",
            "QS",
            "01-701-1234",
            1011,
            "MHITM11",
            "EVIDENCE OF ASSOCIATED ATHEROSCLEROSIS",
            "MHIS-NACC",
            "",
            "ABSENT",
            "",
            "0",
            0,
            "",
            "",
            "",
            "",
            "",
            1,
            "SCREENING 1",
            -7,
            "TREATMENT",
            "2013-03-20",
            -10
          ],
          [
            285,
            "CDISCPILOT01",
            "QS",
            "01-701-1234",
            1012,
            "MHITM12",
            "FOCAL NEUROLOGICAL SYMPTOMS",
            "MHIS-NACC",
            "",
            "ABSENT",
            "",
            "0",
            0,
            "",
            "",
            "",
            "",
            "",
            1,
            "SCREENING 1",
            -7,
            "TREATMENT",
            "2013-03-20",
            -10
          ],
          [
            286,
            "CDISCPILOT01",
            "QS",
            "01-701-1234",
            1013,
            "MHITM13",
            "FOCAL NEUROLOGICAL SIGNS",
            "MHIS-NACC",
            "",
            "ABSENT",
            "",
            "0",
            0,
            "",
            "",
            "",
            "",
            "",
            1,
            "SCREENING 1",
            -7,
            "TREATMENT",
            "2013-03-20",
            -10
          ],
          [
            287,
            "CDISCPILOT01",
            "QS",
            "01-701-1239",
            1001,
            "MHITM01",
            "ABRUPT ONSET",
            "MHIS-NACC",
            "",
            "ABSENT",
            "",
            "0",
            0,
            "",
            "",
            "",
            "",
            "",
            1,
            "SCREENING 1",
            -7,
            "TREATMENT",
            "2013-12-28",
            -14
          ],
          [
            288,
            "CDISCPILOT01",
            "QS",
            "01-701-1239",
            1002,
            "MHITM02",
            "STEPWISE DETERIORATION",
            "MHIS-NACC",
            "",
            "ABSENT",
            "",
            "0",
            0,
            "",
            "",
            "",
            "",
            "",
            1,
            "SCREENING 1",
            -7,
            "TREATMENT",
            "2013-12-28",
            -14
          ],
          [
            289,
            "CDISCPILOT01",
            "QS",
            "01-701-1239",
            1003,
            "MHITM03",
            "FLUCTUATING COURSE",
            "MHIS-NACC",
            "",
            "ABSENT",
            "",
            "0",
            0,
            "",
            "",
            "",
            "",
            "",
            1,
            "SCREENING 1",
            -7,
            "TREATMENT",
            "2013-12-28",
            -14
          ],
          [
            290,
            "CDISCPILOT01",
            "QS",
            "01-701-1239",
            1004,
            "MHITM04",
            "NOCTURNAL CONFUSION",
            "MHIS-NACC",
            "",
            "ABSENT",
            "",
            "0",
            0,
            "",
            "",
            "",
            "",
            "",
            1,
            "SCREENING 1",
            -7,
            "TREATMENT",
            "2013-12-28",
            -14
          ],
          [
            291,
            "CDISCPILOT01",
            "QS",
            "01-701-1239",
            1005,
            "MHITM05",
            "RELATIVE PRESERVATION OF PERSONALITY",
            "MHIS-NACC",
            "",
            "ABSENT",
            "",
            "0",
            0,
            "",
            "",
            "",
            "",
            "",
            1,
            "SCREENING 1",
            -7,
            "TREATMENT",
            "2013-12-28",
            -14
          ],
          [
            292,
            "CDISCPILOT01",
            "QS",
            "01-701-1239",
            1006,
            "MHITM06",
            "DEPRESSION",
            "MHIS-NACC",
            "",
            "ABSENT",
            "",
            "0",
            0,
            "",
            "",
            "",
            "",
            "",
            1,
            "SCREENING 1",
            -7,
            "TREATMENT",
            "2013-12-28",
            -14
          ],
          [
            293,
            "CDISCPILOT01",
            "QS",
            "01-701-1239",
            1007,
            "MHITM07",
            "SOMATIC COMPLAINTS",
            "MHIS-NACC",
            "",
            "ABSENT",
            "",
            "0",
            0,
            "",
            "",
            "",
            "",
            "",
            1,
            "SCREENING 1",
            -7,
            "TREATMENT",
            "2013-12-28",
            -14
          ],
          [
            294,
            "CDISCPILOT01",
            "QS",
            "01-701-1239",
            1008,
            "MHITM08",
            "EMOTIONAL INCONTINENCE",
            "MHIS-NACC",
            "",
            "ABSENT",
            "",
            "0",
            0,
            "",
            "",
            "",
            "",
            "",
            1,
            "SCREENING 1",
            -7,
            "TREATMENT",
            "2013-12-28",
            -14
          ],
          [
            295,
            "CDISCPILOT01",
            "QS",
            "01-701-1239",
            1009,
            "MHITM09",
            "HISTORY OF HYPERTENSION",
            "MHIS-NACC",
            "",
            "ABSENT",
            "",
            "0",
            0,
            "",
            "",
            "",
            "",
            "",
            1,
            "SCREENING 1",
            -7,
            "TREATMENT",
            "2013-12-28",
            -14
          ],
          [
            296,
            "CDISCPILOT01",
            "QS",
            "01-701-1239",
            1010,
            "MHITM10",
            "HISTORY OF STROKES",
            "MHIS-NACC",
            "",
            "ABSENT",
            "",
            "0",
            0,
            "",
            "",
            "",
            "",
            "",
            1,
            "SCREENING 1",
            -7,
            "TREATMENT",
            "2013-12-28",
            -14
          ],
          [
            297,
            "CDISCPILOT01",
            "QS",
            "01-701-1239",
            1011,
            "MHITM11",
            "EVIDENCE OF ASSOCIATED ATHEROSCLEROSIS",
            "MHIS-NACC",
            "",
            "ABSENT",
            "",
            "0",
            0,
            "",
            "",
            "",
            "",
            "",
            1,
            "SCREENING 1",
            -7,
            "TREATMENT",
            "2013-12-28",
            -14
          ],
          [
            298,
            "CDISCPILOT01",
            "QS",
            "01-701-1239",
            1012,
            "MHITM12",
            "FOCAL NEUROLOGICAL SYMPTOMS",
            "MHIS-NACC",
            "",
            "ABSENT",
            "",
            "0",
            0,
            "",
            "",
            "",
            "",
            "",
            1,
            "SCREENING 1",
            -7,
            "TREATMENT",
            "2013-12-28",
            -14
          ],
          [
            299,
            "CDISCPILOT01",
            "QS",
            "01-701-1239",
            1013,
            "MHITM13",
            "FOCAL NEUROLOGICAL SIGNS",
            "MHIS-NACC",
            "",
            "ABSENT",
            "",
            "0",
            0,
            "",
            "",
            "",
            "",
            "",
            1,
            "SCREENING 1",
            -7,
            "TREATMENT",
            "2013-12-28",
            -14
          ],
          [
            300,
            "CDISCPILOT01",
            "QS",
            "01-701-1275",
            1001,
            "MHITM01",
            "ABRUPT ONSET",
            "MHIS-NACC",
            "",
            "ABSENT",
            "",
            "0",
            0,
            "",
            "",
            "",
            "",
            "",
            1,
            "SCREENING 1",
            -7,
            "TREATMENT",
            "2014-01-25",
            -13
          ],
          [
            301,
            "CDISCPILOT01",
            "QS",
            "01-701-1275",
            1002,
            "MHITM02",
            "STEPWISE DETERIORATION",
            "MHIS-NACC",
            "",
            "ABSENT",
            "",
            "0",
            0,
            "",
            "",
            "",
            "",
            "",
            1,
            "SCREENING 1",
            -7,
            "TREATMENT",
            "2014-01-25",
            -13
          ],
          [
            302,
            "CDISCPILOT01",
            "QS",
            "01-701-1275",
            1003,
            "MHITM03",
            "FLUCTUATING COURSE",
            "MHIS-NACC",
            "",
            "ABSENT",
            "",
            "0",
            0,
            "",
            "",
            "",
            "",
            "",
            1,
            "SCREENING 1",
            -7,
            "TREATMENT",
            "2014-01-25",
            -13
          ],
          [
            303,
            "CDISCPILOT01",
            "QS",
            "01-701-1275",
            1004,
            "MHITM04",
            "NOCTURNAL CONFUSION",
            "MHIS-NACC",
            "",
            "ABSENT",
            "",
            "0",
            0,
            "",
            "",
            "",
            "",
            "",
            1,
            "SCREENING 1",
            -7,
            "TREATMENT",
            "2014-01-25",
            -13
          ],
          [
            304,
            "CDISCPILOT01",
            "QS",
            "01-701-1275",
            1005,
            "MHITM05",
            "RELATIVE PRESERVATION OF PERSONALITY",
            "MHIS-NACC",
            "",
            "ABSENT",
            "",
            "0",
            0,
            "",
            "",
            "",
            "",
            "",
            1,
            "SCREENING 1",
            -7,
            "TREATMENT",
            "2014-01-25",
            -13
          ],
          [
            305,
            "CDISCPILOT01",
            "QS",
            "01-701-1275",
            1006,
            "MHITM06",
            "DEPRESSION",
            "MHIS-NACC",
            "",
            "ABSENT",
            "",
            "0",
            0,
            "",
            "",
            "",
            "",
            "",
            1,
            "SCREENING 1",
            -7,
            "TREATMENT",
            "2014-01-25",
            -13
          ],
          [
            306,
            "CDISCPILOT01",
            "QS",
            "01-701-1275",
            1007,
            "MHITM07",
            "SOMATIC COMPLAINTS",
            "MHIS-NACC",
            "",
            "PRESENT",
            "",
            "1",
            1,
            "",
            "",
            "",
            "",
            "",
            1,
            "SCREENING 1",
            -7,
            "TREATMENT",
            "2014-01-25",
            -13
          ],
          [
            307,
            "CDISCPILOT01",
            "QS",
            "01-701-1275",
            1008,
            "MHITM08",
            "EMOTIONAL INCONTINENCE",
            "MHIS-NACC",
            "",
            "ABSENT",
            "",
            "0",
            0,
            "",
            "",
            "",
            "",
            "",
            1,
            "SCREENING 1",
            -7,
            "TREATMENT",
            "2014-01-25",
            -13
          ],
          [
            308,
            "CDISCPILOT01",
            "QS",
            "01-701-1275",
            1009,
            "MHITM09",
            "HISTORY OF HYPERTENSION",
            "MHIS-NACC",
            "",
            "ABSENT",
            "",
            "0",
            0,
            "",
            "",
            "",
            "",
            "",
            1,
            "SCREENING 1",
            -7,
            "TREATMENT",
            "2014-01-25",
            -13
          ],
          [
            309,
            "CDISCPILOT01",
            "QS",
            "01-701-1275",
            1010,
            "MHITM10",
            "HISTORY OF STROKES",
            "MHIS-NACC",
            "",
            "ABSENT",
            "",
            "0",
            0,
            "",
            "",
            "",
            "",
            "",
            1,
            "SCREENING 1",
            -7,
            "TREATMENT",
            "2014-01-25",
            -13
          ],
          [
            310,
            "CDISCPILOT01",
            "QS",
            "01-701-1275",
            1011,
            "MHITM11",
            "EVIDENCE OF ASSOCIATED ATHEROSCLEROSIS",
            "MHIS-NACC",
            "",
            "ABSENT",
            "",
            "0",
            0,
            "",
            "",
            "",
            "",
            "",
            1,
            "SCREENING 1",
            -7,
            "TREATMENT",
            "2014-01-25",
            -13
          ],
          [
            311,
            "CDISCPILOT01",
            "QS",
            "01-701-1275",
            1012,
            "MHITM12",
            "FOCAL NEUROLOGICAL SYMPTOMS",
            "MHIS-NACC",
            "",
            "ABSENT",
            "",
            "0",
            0,
            "",
            "",
            "",
            "",
            "",
            1,
            "SCREENING 1",
            -7,
            "TREATMENT",
            "2014-01-25",
            -13
          ],
          [
            312,
            "CDISCPILOT01",
            "QS",
            "01-701-1275",
            1013,
            "MHITM13",
            "FOCAL NEUROLOGICAL SIGNS",
            "MHIS-NACC",
            "",
            "ABSENT",
            "",
            "0",
            0,
            "",
            "",
            "",
            "",
            "",
            1,
            "SCREENING 1",
            -7,
            "TREATMENT",
            "2014-01-25",
            -13
          ],
          [
            313,
            "CDISCPILOT01",
            "QS",
            "01-701-1287",
            1001,
            "MHITM01",
            "ABRUPT ONSET",
            "MHIS-NACC",
            "",
            "ABSENT",
            "",
            "0",
            0,
            "",
            "",
            "",
            "",
            "",
            1,
            "SCREENING 1",
            -7,
            "TREATMENT",
            "2014-01-17",
            -8
          ],
          [
            314,
            "CDISCPILOT01",
            "QS",
            "01-701-1287",
            1002,
            "MHITM02",
            "STEPWISE DETERIORATION",
            "MHIS-NACC",
            "",
            "ABSENT",
            "",
            "0",
            0,
            "",
            "",
            "",
            "",
            "",
            1,
            "SCREENING 1",
            -7,
            "TREATMENT",
            "2014-01-17",
            -8
          ],
          [
            315,
            "CDISCPILOT01",
            "QS",
            "01-701-1287",
            1003,
            "MHITM03",
            "FLUCTUATING COURSE",
            "MHIS-NACC",
            "",
            "ABSENT",
            "",
            "0",
            0,
            "",
            "",
            "",
            "",
            "",
            1,
            "SCREENING 1",
            -7,
            "TREATMENT",
            "2014-01-17",
            -8
          ],
          [
            316,
            "CDISCPILOT01",
            "QS",
            "01-701-1287",
            1004,
            "MHITM04",
            "NOCTURNAL CONFUSION",
            "MHIS-NACC",
            "",
            "ABSENT",
            "",
            "0",
            0,
            "",
            "",
            "",
            "",
            "",
            1,
            "SCREENING 1",
            -7,
            "TREATMENT",
            "2014-01-17",
            -8
          ],
          [
            317,
            "CDISCPILOT01",
            "QS",
            "01-701-1287",
            1005,
            "MHITM05",
            "RELATIVE PRESERVATION OF PERSONALITY",
            "MHIS-NACC",
            "",
            "ABSENT",
            "",
            "0",
            0,
            "",
            "",
            "",
            "",
            "",
            1,
            "SCREENING 1",
            -7,
            "TREATMENT",
            "2014-01-17",
            -8
          ],
          [
            318,
            "CDISCPILOT01",
            "QS",
            "01-701-1287",
            1006,
            "MHITM06",
            "DEPRESSION",
            "MHIS-NACC",
            "",
            "ABSENT",
            "",
            "0",
            0,
            "",
            "",
            "",
            "",
            "",
            1,
            "SCREENING 1",
            -7,
            "TREATMENT",
            "2014-01-17",
            -8
          ],
          [
            319,
            "CDISCPILOT01",
            "QS",
            "01-701-1287",
            1007,
            "MHITM07",
            "SOMATIC COMPLAINTS",
            "MHIS-NACC",
            "",
            "ABSENT",
            "",
            "0",
            0,
            "",
            "",
            "",
            "",
            "",
            1,
            "SCREENING 1",
            -7,
            "TREATMENT",
            "2014-01-17",
            -8
          ],
          [
            320,
            "CDISCPILOT01",
            "QS",
            "01-701-1287",
            1008,
            "MHITM08",
            "EMOTIONAL INCONTINENCE",
            "MHIS-NACC",
            "",
            "ABSENT",
            "",
            "0",
            0,
            "",
            "",
            "",
            "",
            "",
            1,
            "SCREENING 1",
            -7,
            "TREATMENT",
            "2014-01-17",
            -8
          ],
          [
            321,
            "CDISCPILOT01",
            "QS",
            "01-701-1287",
            1009,
            "MHITM09",
            "HISTORY OF HYPERTENSION",
            "MHIS-NACC",
            "",
            "ABSENT",
            "",
            "0",
            0,
            "",
            "",
            "",
            "",
            "",
            1,
            "SCREENING 1",
            -7,
            "TREATMENT",
            "2014-01-17",
            -8
          ],
          [
            322,
            "CDISCPILOT01",
            "QS",
            "01-701-1287",
            1010,
            "MHITM10",
            "HISTORY OF STROKES",
            "MHIS-NACC",
            "",
            "ABSENT",
            "",
            "0",
            0,
            "",
            "",
            "",
            "",
            "",
            1,
            "SCREENING 1",
            -7,
            "TREATMENT",
            "2014-01-17",
            -8
          ],
          [
            323,
            "CDISCPILOT01",
            "QS",
            "01-701-1287",
            1011,
            "MHITM11",
            "EVIDENCE OF ASSOCIATED ATHEROSCLEROSIS",
            "MHIS-NACC",
            "",
            "ABSENT",
            "",
            "0",
            0,
            "",
            "",
            "",
            "",
            "",
            1,
            "SCREENING 1",
            -7,
            "TREATMENT",
            "2014-01-17",
            -8
          ],
          [
            324,
            "CDISCPILOT01",
            "QS",
            "01-701-1287",
            1012,
            "MHITM12",
            "FOCAL NEUROLOGICAL SYMPTOMS",
            "MHIS-NACC",
            "",
            "ABSENT",
            "",
            "0",
            0,
            "",
            "",
            "",
            "",
            "",
            1,
            "SCREENING 1",
            -7,
            "TREATMENT",
            "2014-01-17",
            -8
          ],
          [
            325,
            "CDISCPILOT01",
            "QS",
            "01-701-1287",
            1013,
            "MHITM13",
            "FOCAL NEUROLOGICAL SIGNS",
            "MHIS-NACC",
            "",
            "ABSENT",
            "",
            "0",
            0,
            "",
            "",
            "",
            "",
            "",
            1,
            "SCREENING 1",
            -7,
            "TREATMENT",
            "2014-01-17",
            -8
          ],
          [
            326,
            "CDISCPILOT01",
            "QS",
            "01-701-1294",
            1001,
            "MHITM01",
            "ABRUPT ONSET",
            "MHIS-NACC",
            "",
            "ABSENT",
            "",
            "0",
            0,
            "",
            "",
            "",
            "",
            "",
            1,
            "SCREENING 1",
            -7,
            "TREATMENT",
            "2013-03-17",
            -7
          ],
          [
            327,
            "CDISCPILOT01",
            "QS",
            "01-701-1294",
            1002,
            "MHITM02",
            "STEPWISE DETERIORATION",
            "MHIS-NACC",
            "",
            "ABSENT",
            "",
            "0",
            0,
            "",
            "",
            "",
            "",
            "",
            1,
            "SCREENING 1",
            -7,
            "TREATMENT",
            "2013-03-17",
            -7
          ],
          [
            328,
            "CDISCPILOT01",
            "QS",
            "01-701-1294",
            1003,
            "MHITM03",
            "FLUCTUATING COURSE",
            "MHIS-NACC",
            "",
            "ABSENT",
            "",
            "0",
            0,
            "",
            "",
            "",
            "",
            "",
            1,
            "SCREENING 1",
            -7,
            "TREATMENT",
            "2013-03-17",
            -7
          ],
          [
            329,
            "CDISCPILOT01",
            "QS",
            "01-701-1294",
            1004,
            "MHITM04",
            "NOCTURNAL CONFUSION",
            "MHIS-NACC",
            "",
            "ABSENT",
            "",
            "0",
            0,
            "",
            "",
            "",
            "",
            "",
            1,
            "SCREENING 1",
            -7,
            "TREATMENT",
            "2013-03-17",
            -7
          ],
          [
            330,
            "CDISCPILOT01",
            "QS",
            "01-701-1294",
            1005,
            "MHITM05",
            "RELATIVE PRESERVATION OF PERSONALITY",
            "MHIS-NACC",
            "",
            "ABSENT",
            "",
            "0",
            0,
            "",
            "",
            "",
            "",
            "",
            1,
            "SCREENING 1",
            -7,
            "TREATMENT",
            "2013-03-17",
            -7
          ],
          [
            331,
            "CDISCPILOT01",
            "QS",
            "01-701-1294",
            1006,
            "MHITM06",
            "DEPRESSION",
            "MHIS-NACC",
            "",
            "ABSENT",
            "",
            "0",
            0,
            "",
            "",
            "",
            "",
            "",
            1,
            "SCREENING 1",
            -7,
            "TREATMENT",
            "2013-03-17",
            -7
          ],
          [
            332,
            "CDISCPILOT01",
            "QS",
            "01-701-1294",
            1007,
            "MHITM07",
            "SOMATIC COMPLAINTS",
            "MHIS-NACC",
            "",
            "ABSENT",
            "",
            "0",
            0,
            "",
            "",
            "",
            "",
            "",
            1,
            "SCREENING 1",
            -7,
            "TREATMENT",
            "2013-03-17",
            -7
          ],
          [
            333,
            "CDISCPILOT01",
            "QS",
            "01-701-1294",
            1008,
            "MHITM08",
            "EMOTIONAL INCONTINENCE",
            "MHIS-NACC",
            "",
            "ABSENT",
            "",
            "0",
            0,
            "",
            "",
            "",
            "",
            "",
            1,
            "SCREENING 1",
            -7,
            "TREATMENT",
            "2013-03-17",
            -7
          ],
          [
            334,
            "CDISCPILOT01",
            "QS",
            "01-701-1294",
            1009,
            "MHITM09",
            "HISTORY OF HYPERTENSION",
            "MHIS-NACC",
            "",
            "ABSENT",
            "",
            "0",
            0,
            "",
            "",
            "",
            "",
            "",
            1,
            "SCREENING 1",
            -7,
            "TREATMENT",
            "2013-03-17",
            -7
          ],
          [
            335,
            "CDISCPILOT01",
            "QS",
            "01-701-1294",
            1010,
            "MHITM10",
            "HISTORY OF STROKES",
            "MHIS-NACC",
            "",
            "ABSENT",
            "",
            "0",
            0,
            "",
            "",
            "",
            "",
            "",
            1,
            "SCREENING 1",
            -7,
            "TREATMENT",
            "2013-03-17",
            -7
          ],
          [
            336,
            "CDISCPILOT01",
            "QS",
            "01-701-1294",
            1011,
            "MHITM11",
            "EVIDENCE OF ASSOCIATED ATHEROSCLEROSIS",
            "MHIS-NACC",
            "",
            "ABSENT",
            "",
            "0",
            0,
            "",
            "",
            "",
            "",
            "",
            1,
            "SCREENING 1",
            -7,
            "TREATMENT",
            "2013-03-17",
            -7
          ],
          [
            337,
            "CDISCPILOT01",
            "QS",
            "01-701-1294",
            1012,
            "MHITM12",
            "FOCAL NEUROLOGICAL SYMPTOMS",
            "MHIS-NACC",
            "",
            "ABSENT",
            "",
            "0",
            0,
            "",
            "",
            "",
            "",
            "",
            1,
            "SCREENING 1",
            -7,
            "TREATMENT",
            "2013-03-17",
            -7
          ],
          [
            338,
            "CDISCPILOT01",
            "QS",
            "01-701-1294",
            1013,
            "MHITM13",
            "FOCAL NEUROLOGICAL SIGNS",
            "MHIS-NACC",
            "",
            "ABSENT",
            "",
            "0",
            0,
            "",
            "",
            "",
            "",
            "",
            1,
            "SCREENING 1",
            -7,
            "TREATMENT",
            "2013-03-17",
            -7
          ],
          [
            339,
            "CDISCPILOT01",
            "QS",
            "01-701-1302",
            1001,
            "MHITM01",
            "ABRUPT ONSET",
            "MHIS-NACC",
            "",
            "ABSENT",
            "",
            "0",
            0,
            "",
            "",
            "",
            "",
            "",
            1,
            "SCREENING 1",
            -7,
            "TREATMENT",
            "2013-08-20",
            -9
          ],
          [
            340,
            "CDISCPILOT01",
            "QS",
            "01-701-1302",
            1002,
            "MHITM02",
            "STEPWISE DETERIORATION",
            "MHIS-NACC",
            "",
            "ABSENT",
            "",
            "0",
            0,
            "",
            "",
            "",
            "",
            "",
            1,
            "SCREENING 1",
            -7,
            "TREATMENT",
            "2013-08-20",
            -9
          ],
          [
            341,
            "CDISCPILOT01",
            "QS",
            "01-701-1302",
            1003,
            "MHITM03",
            "FLUCTUATING COURSE",
            "MHIS-NACC",
            "",
            "ABSENT",
            "",
            "0",
            0,
            "",
            "",
            "",
            "",
            "",
            1,
            "SCREENING 1",
            -7,
            "TREATMENT",
            "2013-08-20",
            -9
          ],
          [
            342,
            "CDISCPILOT01",
            "QS",
            "01-701-1302",
            1004,
            "MHITM04",
            "NOCTURNAL CONFUSION",
            "MHIS-NACC",
            "",
            "ABSENT",
            "",
            "0",
            0,
            "",
            "",
            "",
            "",
            "",
            1,
            "SCREENING 1",
            -7,
            "TREATMENT",
            "2013-08-20",
            -9
          ],
          [
            343,
            "CDISCPILOT01",
            "QS",
            "01-701-1302",
            1005,
            "MHITM05",
            "RELATIVE PRESERVATION OF PERSONALITY",
            "MHIS-NACC",
            "",
            "ABSENT",
            "",
            "0",
            0,
            "",
            "",
            "",
            "",
            "",
            1,
            "SCREENING 1",
            -7,
            "TREATMENT",
            "2013-08-20",
            -9
          ],
          [
            344,
            "CDISCPILOT01",
            "QS",
            "01-701-1302",
            1006,
            "MHITM06",
            "DEPRESSION",
            "MHIS-NACC",
            "",
            "ABSENT",
            "",
            "0",
            0,
            "",
            "",
            "",
            "",
            "",
            1,
            "SCREENING 1",
            -7,
            "TREATMENT",
            "2013-08-20",
            -9
          ],
          [
            345,
            "CDISCPILOT01",
            "QS",
            "01-701-1302",
            1007,
            "MHITM07",
            "SOMATIC COMPLAINTS",
            "MHIS-NACC",
            "",
            "PRESENT",
            "",
            "1",
            1,
            "",
            "",
            "",
            "",
            "",
            1,
            "SCREENING 1",
            -7,
            "TREATMENT",
            "2013-08-20",
            -9
          ],
          [
            346,
            "CDISCPILOT01",
            "QS",
            "01-701-1302",
            1008,
            "MHITM08",
            "EMOTIONAL INCONTINENCE",
            "MHIS-NACC",
            "",
            "ABSENT",
            "",
            "0",
            0,
            "",
            "",
            "",
            "",
            "",
            1,
            "SCREENING 1",
            -7,
            "TREATMENT",
            "2013-08-20",
            -9
          ],
          [
            347,
            "CDISCPILOT01",
            "QS",
            "01-701-1302",
            1009,
            "MHITM09",
            "HISTORY OF HYPERTENSION",
            "MHIS-NACC",
            "",
            "ABSENT",
            "",
            "0",
            0,
            "",
            "",
            "",
            "",
            "",
            1,
            "SCREENING 1",
            -7,
            "TREATMENT",
            "2013-08-20",
            -9
          ],
          [
            348,
            "CDISCPILOT01",
            "QS",
            "01-701-1302",
            1010,
            "MHITM10",
            "HISTORY OF STROKES",
            "MHIS-NACC",
            "",
            "ABSENT",
            "",
            "0",
            0,
            "",
            "",
            "",
            "",
            "",
            1,
            "SCREENING 1",
            -7,
            "TREATMENT",
            "2013-08-20",
            -9
          ],
          [
            349,
            "CDISCPILOT01",
            "QS",
            "01-701-1302",
            1011,
            "MHITM11",
            "EVIDENCE OF ASSOCIATED ATHEROSCLEROSIS",
            "MHIS-NACC",
            "",
            "ABSENT",
            "",
            "0",
            0,
            "",
            "",
            "",
            "",
            "",
            1,
            "SCREENING 1",
            -7,
            "TREATMENT",
            "2013-08-20",
            -9
          ],
          [
            350,
            "CDISCPILOT01",
            "QS",
            "01-701-1302",
            1012,
            "MHITM12",
            "FOCAL NEUROLOGICAL SYMPTOMS",
            "MHIS-NACC",
            "",
            "ABSENT",
            "",
            "0",
            0,
            "",
            "",
            "",
            "",
            "",
            1,
            "SCREENING 1",
            -7,
            "TREATMENT",
            "2013-08-20",
            -9
          ],
          [
            351,
            "CDISCPILOT01",
            "QS",
            "01-701-1302",
            1013,
            "MHITM13",
            "FOCAL NEUROLOGICAL SIGNS",
            "MHIS-NACC",
            "",
            "ABSENT",
            "",
            "0",
            0,
            "",
            "",
            "",
            "",
            "",
            1,
            "SCREENING 1",
            -7,
            "TREATMENT",
            "2013-08-20",
            -9
          ],
          [
            352,
            "CDISCPILOT01",
            "QS",
            "01-701-1317",
            1001,
            "MHITM01",
            "ABRUPT ONSET",
            "MHIS-NACC",
            "",
            "ABSENT",
            "",
            "0",
            0,
            "",
            "",
            "",
            "",
            "",
            1,
            "SCREENING 1",
            -7,
            "TREATMENT",
            "2014-05-10",
            -12
          ],
          [
            353,
            "CDISCPILOT01",
            "QS",
            "01-701-1317",
            1002,
            "MHITM02",
            "STEPWISE DETERIORATION",
            "MHIS-NACC",
            "",
            "ABSENT",
            "",
            "0",
            0,
            "",
            "",
            "",
            "",
            "",
            1,
            "SCREENING 1",
            -7,
            "TREATMENT",
            "2014-05-10",
            -12
          ],
          [
            354,
            "CDISCPILOT01",
            "QS",
            "01-701-1317",
            1003,
            "MHITM03",
            "FLUCTUATING COURSE",
            "MHIS-NACC",
            "",
            "ABSENT",
            "",
            "0",
            0,
            "",
            "",
            "",
            "",
            "",
            1,
            "SCREENING 1",
            -7,
            "TREATMENT",
            "2014-05-10",
            -12
          ],
          [
            355,
            "CDISCPILOT01",
            "QS",
            "01-701-1317",
            1004,
            "MHITM04",
            "NOCTURNAL CONFUSION",
            "MHIS-NACC",
            "",
            "ABSENT",
            "",
            "0",
            0,
            "",
            "",
            "",
            "",
            "",
            1,
            "SCREENING 1",
            -7,
            "TREATMENT",
            "2014-05-10",
            -12
          ],
          [
            356,
            "CDISCPILOT01",
            "QS",
            "01-701-1317",
            1005,
            "MHITM05",
            "RELATIVE PRESERVATION OF PERSONALITY",
            "MHIS-NACC",
            "",
            "ABSENT",
            "",
            "0",
            0,
            "",
            "",
            "",
            "",
            "",
            1,
            "SCREENING 1",
            -7,
            "TREATMENT",
            "2014-05-10",
            -12
          ],
          [
            357,
            "CDISCPILOT01",
            "QS",
            "01-701-1317",
            1006,
            "MHITM06",
            "DEPRESSION",
            "MHIS-NACC",
            "",
            "ABSENT",
            "",
            "0",
            0,
            "",
            "",
            "",
            "",
            "",
            1,
            "SCREENING 1",
            -7,
            "TREATMENT",
            "2014-05-10",
            -12
          ],
          [
            358,
            "CDISCPILOT01",
            "QS",
            "01-701-1317",
            1007,
            "MHITM07",
            "SOMATIC COMPLAINTS",
            "MHIS-NACC",
            "",
            "PRESENT",
            "",
            "1",
            1,
            "",
            "",
            "",
            "",
            "",
            1,
            "SCREENING 1",
            -7,
            "TREATMENT",
            "2014-05-10",
            -12
          ],
          [
            359,
            "CDISCPILOT01",
            "QS",
            "01-701-1317",
            1008,
            "MHITM08",
            "EMOTIONAL INCONTINENCE",
            "MHIS-NACC",
            "",
            "ABSENT",
            "",
            "0",
            0,
            "",
            "",
            "",
            "",
            "",
            1,
            "SCREENING 1",
            -7,
            "TREATMENT",
            "2014-05-10",
            -12
          ],
          [
            360,
            "CDISCPILOT01",
            "QS",
            "01-701-1317",
            1009,
            "MHITM09",
            "HISTORY OF HYPERTENSION",
            "MHIS-NACC",
            "",
            "ABSENT",
            "",
            "0",
            0,
            "",
            "",
            "",
            "",
            "",
            1,
            "SCREENING 1",
            -7,
            "TREATMENT",
            "2014-05-10",
            -12
          ],
          [
            361,
            "CDISCPILOT01",
            "QS",
            "01-701-1317",
            1010,
            "MHITM10",
            "HISTORY OF STROKES",
            "MHIS-NACC",
            "",
            "ABSENT",
            "",
            "0",
            0,
            "",
            "",
            "",
            "",
            "",
            1,
            "SCREENING 1",
            -7,
            "TREATMENT",
            "2014-05-10",
            -12
          ],
          [
            362,
            "CDISCPILOT01",
            "QS",
            "01-701-1317",
            1011,
            "MHITM11",
            "EVIDENCE OF ASSOCIATED ATHEROSCLEROSIS",
            "MHIS-NACC",
            "",
            "ABSENT",
            "",
            "0",
            0,
            "",
            "",
            "",
            "",
            "",
            1,
            "SCREENING 1",
            -7,
            "TREATMENT",
            "2014-05-10",
            -12
          ],
          [
            363,
            "CDISCPILOT01",
            "QS",
            "01-701-1317",
            1012,
            "MHITM12",
            "FOCAL NEUROLOGICAL SYMPTOMS",
            "MHIS-NACC",
            "",
            "ABSENT",
            "",
            "0",
            0,
            "",
            "",
            "",
            "",
            "",
            1,
            "SCREENING 1",
            -7,
            "TREATMENT",
            "2014-05-10",
            -12
          ],
          [
            364,
            "CDISCPILOT01",
            "QS",
            "01-701-1317",
            1013,
            "MHITM13",
            "FOCAL NEUROLOGICAL SIGNS",
            "MHIS-NACC",
            "",
            "ABSENT",
            "",
            "0",
            0,
            "",
            "",
            "",
            "",
            "",
            1,
            "SCREENING 1",
            -7,
            "TREATMENT",
            "2014-05-10",
            -12
          ],
          [
            365,
            "CDISCPILOT01",
            "QS",
            "01-701-1324",
            1001,
            "MHITM01",
            "ABRUPT ONSET",
            "MHIS-NACC",
            "",
            "ABSENT",
            "",
            "0",
            0,
            "",
            "",
            "",
            "",
            "",
            1,
            "SCREENING 1",
            -7,
            "TREATMENT",
            "2012-09-16",
            -16
          ],
          [
            366,
            "CDISCPILOT01",
            "QS",
            "01-701-1324",
            1002,
            "MHITM02",
            "STEPWISE DETERIORATION",
            "MHIS-NACC",
            "",
            "ABSENT",
            "",
            "0",
            0,
            "",
            "",
            "",
            "",
            "",
            1,
            "SCREENING 1",
            -7,
            "TREATMENT",
            "2012-09-16",
            -16
          ],
          [
            367,
            "CDISCPILOT01",
            "QS",
            "01-701-1324",
            1003,
            "MHITM03",
            "FLUCTUATING COURSE",
            "MHIS-NACC",
            "",
            "ABSENT",
            "",
            "0",
            0,
            "",
            "",
            "",
            "",
            "",
            1,
            "SCREENING 1",
            -7,
            "TREATMENT",
            "2012-09-16",
            -16
          ],
          [
            368,
            "CDISCPILOT01",
            "QS",
            "01-701-1324",
            1004,
            "MHITM04",
            "NOCTURNAL CONFUSION",
            "MHIS-NACC",
            "",
            "ABSENT",
            "",
            "0",
            0,
            "",
            "",
            "",
            "",
            "",
            1,
            "SCREENING 1",
            -7,
            "TREATMENT",
            "2012-09-16",
            -16
          ],
          [
            369,
            "CDISCPILOT01",
            "QS",
            "01-701-1324",
            1005,
            "MHITM05",
            "RELATIVE PRESERVATION OF PERSONALITY",
            "MHIS-NACC",
            "",
            "ABSENT",
            "",
            "0",
            0,
            "",
            "",
            "",
            "",
            "",
            1,
            "SCREENING 1",
            -7,
            "TREATMENT",
            "2012-09-16",
            -16
          ],
          [
            370,
            "CDISCPILOT01",
            "QS",
            "01-701-1324",
            1006,
            "MHITM06",
            "DEPRESSION",
            "MHIS-NACC",
            "",
            "ABSENT",
            "",
            "0",
            0,
            "",
            "",
            "",
            "",
            "",
            1,
            "SCREENING 1",
            -7,
            "TREATMENT",
            "2012-09-16",
            -16
          ],
          [
            371,
            "CDISCPILOT01",
            "QS",
            "01-701-1324",
            1007,
            "MHITM07",
            "SOMATIC COMPLAINTS",
            "MHIS-NACC",
            "",
            "PRESENT",
            "",
            "1",
            1,
            "",
            "",
            "",
            "",
            "",
            1,
            "SCREENING 1",
            -7,
            "TREATMENT",
            "2012-09-16",
            -16
          ],
          [
            372,
            "CDISCPILOT01",
            "QS",
            "01-701-1324",
            1008,
            "MHITM08",
            "EMOTIONAL INCONTINENCE",
            "MHIS-NACC",
            "",
            "ABSENT",
            "",
            "0",
            0,
            "",
            "",
            "",
            "",
            "",
            1,
            "SCREENING 1",
            -7,
            "TREATMENT",
            "2012-09-16",
            -16
          ],
          [
            373,
            "CDISCPILOT01",
            "QS",
            "01-701-1324",
            1009,
            "MHITM09",
            "HISTORY OF HYPERTENSION",
            "MHIS-NACC",
            "",
            "ABSENT",
            "",
            "0",
            0,
            "",
            "",
            "",
            "",
            "",
            1,
            "SCREENING 1",
            -7,
            "TREATMENT",
            "2012-09-16",
            -16
          ],
          [
            374,
            "CDISCPILOT01",
            "QS",
            "01-701-1324",
            1010,
            "MHITM10",
            "HISTORY OF STROKES",
            "MHIS-NACC",
            "",
            "ABSENT",
            "",
            "0",
            0,
            "",
            "",
            "",
            "",
            "",
            1,
            "SCREENING 1",
            -7,
            "TREATMENT",
            "2012-09-16",
            -16
          ],
          [
            375,
            "CDISCPILOT01",
            "QS",
            "01-701-1324",
            1011,
            "MHITM11",
            "EVIDENCE OF ASSOCIATED ATHEROSCLEROSIS",
            "MHIS-NACC",
            "",
            "ABSENT",
            "",
            "0",
            0,
            "",
            "",
            "",
            "",
            "",
            1,
            "SCREENING 1",
            -7,
            "TREATMENT",
            "2012-09-16",
            -16
          ],
          [
            376,
            "CDISCPILOT01",
            "QS",
            "01-701-1324",
            1012,
            "MHITM12",
            "FOCAL NEUROLOGICAL SYMPTOMS",
            "MHIS-NACC",
            "",
            "ABSENT",
            "",
            "0",
            0,
            "",
            "",
            "",
            "",
            "",
            1,
            "SCREENING 1",
            -7,
            "TREATMENT",
            "2012-09-16",
            -16
          ],
          [
            377,
            "CDISCPILOT01",
            "QS",
            "01-701-1324",
            1013,
            "MHITM13",
            "FOCAL NEUROLOGICAL SIGNS",
            "MHIS-NACC",
            "",
            "ABSENT",
            "",
            "0",
            0,
            "",
            "",
            "",
            "",
            "",
            1,
            "SCREENING 1",
            -7,
            "TREATMENT",
            "2012-09-16",
            -16
          ],
          [
            378,
            "CDISCPILOT01",
            "QS",
            "01-701-1341",
            1001,
            "MHITM01",
            "ABRUPT ONSET",
            "MHIS-NACC",
            "",
            "ABSENT",
            "",
            "0",
            0,
            "",
            "",
            "",
            "",
            "",
            1,
            "SCREENING 1",
            -7,
            "TREATMENT",
            "2012-12-22",
            -14
          ],
          [
            379,
            "CDISCPILOT01",
            "QS",
            "01-701-1341",
            1002,
            "MHITM02",
            "STEPWISE DETERIORATION",
            "MHIS-NACC",
            "",
            "ABSENT",
            "",
            "0",
            0,
            "",
            "",
            "",
            "",
            "",
            1,
            "SCREENING 1",
            -7,
            "TREATMENT",
            "2012-12-22",
            -14
          ],
          [
            380,
            "CDISCPILOT01",
            "QS",
            "01-701-1341",
            1003,
            "MHITM03",
            "FLUCTUATING COURSE",
            "MHIS-NACC",
            "",
            "ABSENT",
            "",
            "0",
            0,
            "",
            "",
            "",
            "",
            "",
            1,
            "SCREENING 1",
            -7,
            "TREATMENT",
            "2012-12-22",
            -14
          ],
          [
            381,
            "CDISCPILOT01",
            "QS",
            "01-701-1341",
            1004,
            "MHITM04",
            "NOCTURNAL CONFUSION",
            "MHIS-NACC",
            "",
            "ABSENT",
            "",
            "0",
            0,
            "",
            "",
            "",
            "",
            "",
            1,
            "SCREENING 1",
            -7,
            "TREATMENT",
            "2012-12-22",
            -14
          ],
          [
            382,
            "CDISCPILOT01",
            "QS",
            "01-701-1341",
            1005,
            "MHITM05",
            "RELATIVE PRESERVATION OF PERSONALITY",
            "MHIS-NACC",
            "",
            "ABSENT",
            "",
            "0",
            0,
            "",
            "",
            "",
            "",
            "",
            1,
            "SCREENING 1",
            -7,
            "TREATMENT",
            "2012-12-22",
            -14
          ],
          [
            383,
            "CDISCPILOT01",
            "QS",
            "01-701-1341",
            1006,
            "MHITM06",
            "DEPRESSION",
            "MHIS-NACC",
            "",
            "PRESENT",
            "",
            "1",
            1,
            "",
            "",
            "",
            "",
            "",
            1,
            "SCREENING 1",
            -7,
            "TREATMENT",
            "2012-12-22",
            -14
          ],
          [
            384,
