{
  "clinicalData": {
    "studyOID": "UpdatedCDISCPILOT.CDISC SDTM.3.2",
    "metaDataVersionOID": "MDV.UpdatedCDISCPILOT.CDISC SDTM.3.2",
    "itemGroupData": {
      "IG.QSMM": {
        "records": 1524,
        "name": "QSMM",
        "label": "Questionnaires",
        "items": [
          {
            "OID": "ITEMGROUPDATASEQ",
            "name": "ITEMGROUPDATASEQ",
            "label": "Record identifier",
            "type": "integer"
          },
          {
            "OID": "IT.QSMM.STUDYID",
            "name": "STUDYID",
            "label": "Study Identifier",
            "type": "string",
            "length": 12
          },
          {
            "OID": "IT.QSMM.DOMAIN",
            "name": "DOMAIN",
            "label": "Domain Abbreviation",
            "type": "string",
            "length": 2
          },
          {
            "OID": "IT.QSMM.USUBJID",
            "name": "USUBJID",
            "label": "Unique Subject Identifier",
            "type": "string",
            "length": 11
          },
          {
            "OID": "IT.QSMM.QSSEQ",
            "name": "QSSEQ",
            "label": "Sequence Number",
            "type": "integer",
            "length": 8
          },
          {
            "OID": "IT.QSMM.QSTESTCD",
            "name": "QSTESTCD",
            "label": "Question Short Name",
            "type": "string",
            "length": 8
          },
          {
            "OID": "IT.QSMM.QSTEST",
            "name": "QSTEST",
            "label": "Question Name",
            "type": "string",
            "length": 40
          },
          {
            "OID": "IT.QSMM.QSCAT",
            "name": "QSCAT",
            "label": "Category of Question",
            "type": "string",
            "length": 70
          },
          {
            "OID": "IT.QSMM.QSSCAT",
            "name": "QSSCAT",
            "label": "Subcategory for Question",
            "type": "string",
            "length": 26
          },
          {
            "OID": "IT.QSMM.QSORRES",
            "name": "QSORRES",
            "label": "Finding in Original Units",
            "type": "string",
            "length": 20
          },
          {
            "OID": "IT.QSMM.QSORRESU",
            "name": "QSORRESU",
            "label": "Original Units",
            "type": "string",
            "length": 7
          },
          {
            "OID": "IT.QSMM.QSSTRESC",
            "name": "QSSTRESC",
            "label": "Character Result/Finding in Std Format",
            "type": "string",
            "length": 4
          },
          {
            "OID": "IT.QSMM.QSSTRESN",
            "name": "QSSTRESN",
            "label": "Numeric Finding in Standard Units",
            "type": "integer",
            "length": 8
          },
          {
            "OID": "IT.QSMM.QSSTRESU",
            "name": "QSSTRESU",
            "label": "Standard Units",
            "type": "string",
            "length": 7
          },
          {
            "OID": "IT.QSMM.QSSTAT",
            "name": "QSSTAT",
            "label": "Completion Status",
            "type": "string",
            "length": 8
          },
          {
            "OID": "IT.QSMM.QSREASND",
            "name": "QSREASND",
            "label": "Reason Not Performed",
            "type": "string",
            "length": 17
          },
          {
            "OID": "IT.QSMM.QSBLFL",
            "name": "QSBLFL",
            "label": "Baseline Flag",
            "type": "string",
            "length": 1
          },
          {
            "OID": "IT.QSMM.QSDRVFL",
            "name": "QSDRVFL",
            "label": "Derived Flag",
            "type": "string",
            "length": 1
          },
          {
            "OID": "IT.QSMM.VISITNUM",
            "name": "VISITNUM",
            "label": "Visit Number",
            "type": "float",
            "length": 8
          },
          {
            "OID": "IT.QSMM.VISIT",
            "name": "VISIT",
            "label": "Visit Name",
            "type": "string",
            "length": 19
          },
          {
            "OID": "IT.QSMM.VISITDY",
            "name": "VISITDY",
            "label": "Planned Study Day of Visit",
            "type": "integer",
            "length": 8
          },
          {
            "OID": "IT.QSMM.EPOCH",
            "name": "EPOCH",
            "label": "Epoch",
            "type": "string",
            "length": 9
          },
          {
            "OID": "IT.QSMM.QSDTC",
            "name": "QSDTC",
            "label": "Date/Time of Finding",
            "type": "string",
            "length": 10
          },
          {
            "OID": "IT.QSMM.QSDY",
            "name": "QSDY",
            "label": "Study Day of Finding",
            "type": "integer",
            "length": 8
          }
        ],
        "itemData": [
          [
            1,
            "CDISCPILOT01",
            "QS",
            "01-701-1015",
            2001,
            "MMITM01",
            "WHAT IS THE (YEAR) (SEASON) (DATE) ?",
            "MMSE",
            "ORIENTATION",
            "4",
            "",
            "4",
            4,
            "",
            "",
            "",
            "",
            "",
            1,
            "SCREENING 1",
            -7,
            "TREATMENT",
            "2013-12-26",
            -7
          ],
          [
            2,
            "CDISCPILOT01",
            "QS",
            "01-701-1015",
            2002,
            "MMITM02",
            "WHERE ARE WE: (STATE) (COUNTRY) (TOWN) ?",
            "MMSE",
            "ORIENTATION",
            "4",
            "",
            "4",
            4,
            "",
            "",
            "",
            "",
            "",
            1,
            "SCREENING 1",
            -7,
            "TREATMENT",
            "2013-12-26",
            -7
          ],
          [
            3,
            "CDISCPILOT01",
            "QS",
            "01-701-1015",
            2003,
            "MMITM03",
            "NAME 3 OBJECTS: 1 SECOND TO SAY EACH.",
            "MMSE",
            "REGISTRATION",
            "3",
            "",
            "3",
            3,
            "",
            "",
            "",
            "",
            "",
            1,
            "SCREENING 1",
            -7,
            "TREATMENT",
            "2013-12-26",
            -7
          ],
          [
            4,
            "CDISCPILOT01",
            "QS",
            "01-701-1015",
            2004,
            "MMITM04",
            "SERIAL 7'S. 1 POINT FOR EACH CORRECT.",
            "MMSE",
            "ATTENTION AND CALCULATI",
            "3",
            "",
            "3",
            3,
            "",
            "",
            "",
            "",
            "",
            1,
            "SCREENING 1",
            -7,
            "TREATMENT",
            "2013-12-26",
            -7
          ],
          [
            5,
            "CDISCPILOT01",
            "QS",
            "01-701-1015",
            2005,
            "MMITM05",
            "ASK FOR THE 3 OBJECTS REPEATED ABOVE.",
            "MMSE",
            "RECALL",
            "2",
            "",
            "2",
            2,
            "",
            "",
            "",
            "",
            "",
            1,
            "SCREENING 1",
            -7,
            "TREATMENT",
            "2013-12-26",
            -7
          ],
          [
            6,
            "CDISCPILOT01",
            "QS",
            "01-701-1015",
            2006,
            "MMITM06",
            "NAME A PENCIL, AND WATCH (2 POINTS)",
            "MMSE",
            "LANGUAGE",
            "7",
            "",
            "7",
            7,
            "",
            "",
            "",
            "",
            "",
            1,
            "SCREENING 1",
            -7,
            "TREATMENT",
            "2013-12-26",
            -7
          ],
          [
            7,
            "CDISCPILOT01",
            "QS",
            "01-701-1023",
            2001,
            "MMITM01",
            "WHAT IS THE (YEAR) (SEASON) (DATE) ?",
            "MMSE",
            "ORIENTATION",
            "4",
            "",
            "4",
            4,
            "",
            "",
            "",
            "",
            "",
            1,
            "SCREENING 1",
            -7,
            "TREATMENT",
            "2012-07-22",
            -14
          ],
          [
            8,
            "CDISCPILOT01",
            "QS",
            "01-701-1023",
            2002,
            "MMITM02",
            "WHERE ARE WE: (STATE) (COUNTRY) (TOWN) ?",
            "MMSE",
            "ORIENTATION",
            "4",
            "",
            "4",
            4,
            "",
            "",
            "",
            "",
            "",
            1,
            "SCREENING 1",
            -7,
            "TREATMENT",
            "2012-07-22",
            -14
          ],
          [
            9,
            "CDISCPILOT01",
            "QS",
            "01-701-1023",
            2003,
            "MMITM03",
            "NAME 3 OBJECTS: 1 SECOND TO SAY EACH.",
            "MMSE",
            "REGISTRATION",
            "3",
            "",
            "3",
            3,
            "",
            "",
            "",
            "",
            "",
            1,
            "SCREENING 1",
            -7,
            "TREATMENT",
            "2012-07-22",
            -14
          ],
          [
            10,
            "CDISCPILOT01",
            "QS",
            "01-701-1023",
            2004,
            "MMITM04",
            "SERIAL 7'S. 1 POINT FOR EACH CORRECT.",
            "MMSE",
            "ATTENTION AND CALCULATI",
            "4",
            "",
            "4",
            4,
            "",
            "",
            "",
            "",
            "",
            1,
            "SCREENING 1",
            -7,
            "TREATMENT",
            "2012-07-22",
            -14
          ],
          [
            11,
            "CDISCPILOT01",
            "QS",
            "01-701-1023",
            2005,
            "MMITM05",
            "ASK FOR THE 3 OBJECTS REPEATED ABOVE.",
            "MMSE",
            "RECALL",
            "2",
            "",
            "2",
            2,
            "",
            "",
            "",
            "",
            "",
            1,
            "SCREENING 1",
            -7,
            "TREATMENT",
            "2012-07-22",
            -14
          ],
          [
            12,
            "CDISCPILOT01",
            "QS",
            "01-701-1023",
            2006,
            "MMITM06",
            "NAME A PENCIL, AND WATCH (2 POINTS)",
            "MMSE",
            "LANGUAGE",
            "6",
            "",
            "6",
            6,
            "",
            "",
            "",
            "",
            "",
            1,
            "SCREENING 1",
            -7,
            "TREATMENT",
            "2012-07-22",
            -14
          ],
          [
            13,
            "CDISCPILOT01",
            "QS",
            "01-701-1028",
            2001,
            "MMITM01",
            "WHAT IS THE (YEAR) (SEASON) (DATE) ?",
            "MMSE",
            "ORIENTATION",
            "3",
            "",
            "3",
            3,
            "",
            "",
            "",
            "",
            "",
            1,
            "SCREENING 1",
            -7,
            "TREATMENT",
            "2013-07-11",
            -8
          ],
          [
            14,
            "CDISCPILOT01",
            "QS",
            "01-701-1028",
            2002,
            "MMITM02",
            "WHERE ARE WE: (STATE) (COUNTRY) (TOWN) ?",
            "MMSE",
            "ORIENTATION",
            "4",
            "",
            "4",
            4,
            "",
            "",
            "",
            "",
            "",
            1,
            "SCREENING 1",
            -7,
            "TREATMENT",
            "2013-07-11",
            -8
          ],
          [
            15,
            "CDISCPILOT01",
            "QS",
            "01-701-1028",
            2003,
            "MMITM03",
            "NAME 3 OBJECTS: 1 SECOND TO SAY EACH.",
            "MMSE",
            "REGISTRATION",
            "3",
            "",
            "3",
            3,
            "",
            "",
            "",
            "",
            "",
            1,
            "SCREENING 1",
            -7,
            "TREATMENT",
            "2013-07-11",
            -8
          ],
          [
            16,
            "CDISCPILOT01",
            "QS",
            "01-701-1028",
            2004,
            "MMITM04",
            "SERIAL 7'S. 1 POINT FOR EACH CORRECT.",
            "MMSE",
            "ATTENTION AND CALCULATI",
            "4",
            "",
            "4",
            4,
            "",
            "",
            "",
            "",
            "",
            1,
            "SCREENING 1",
            -7,
            "TREATMENT",
            "2013-07-11",
            -8
          ],
          [
            17,
            "CDISCPILOT01",
            "QS",
            "01-701-1028",
            2005,
            "MMITM05",
            "ASK FOR THE 3 OBJECTS REPEATED ABOVE.",
            "MMSE",
            "RECALL",
            "2",
            "",
            "2",
            2,
            "",
            "",
            "",
            "",
            "",
            1,
            "SCREENING 1",
            -7,
            "TREATMENT",
            "2013-07-11",
            -8
          ],
          [
            18,
            "CDISCPILOT01",
            "QS",
            "01-701-1028",
            2006,
            "MMITM06",
            "NAME A PENCIL, AND WATCH (2 POINTS)",
            "MMSE",
            "LANGUAGE",
            "7",
            "",
            "7",
            7,
            "",
            "",
            "",
            "",
            "",
            1,
            "SCREENING 1",
            -7,
            "TREATMENT",
            "2013-07-11",
            -8
          ],
          [
            19,
            "CDISCPILOT01",
            "QS",
            "01-701-1033",
            2001,
            "MMITM01",
            "WHAT IS THE (YEAR) (SEASON) (DATE) ?",
            "MMSE",
            "ORIENTATION",
            "4",
            "",
            "4",
            4,
            "",
            "",
            "",
            "",
            "",
            1,
            "SCREENING 1",
            -7,
            "TREATMENT",
            "2014-03-10",
            -8
          ],
          [
            20,
            "CDISCPILOT01",
            "QS",
            "01-701-1033",
            2002,
            "MMITM02",
            "WHERE ARE WE: (STATE) (COUNTRY) (TOWN) ?",
            "MMSE",
            "ORIENTATION",
            "4",
            "",
            "4",
            4,
            "",
            "",
            "",
            "",
            "",
            1,
            "SCREENING 1",
            -7,
            "TREATMENT",
            "2014-03-10",
            -8
          ],
          [
            21,
            "CDISCPILOT01",
            "QS",
            "01-701-1033",
            2003,
            "MMITM03",
            "NAME 3 OBJECTS: 1 SECOND TO SAY EACH.",
            "MMSE",
            "REGISTRATION",
            "3",
            "",
            "3",
            3,
            "",
            "",
            "",
            "",
            "",
            1,
            "SCREENING 1",
            -7,
            "TREATMENT",
            "2014-03-10",
            -8
          ],
          [
            22,
            "CDISCPILOT01",
            "QS",
            "01-701-1033",
            2004,
            "MMITM04",
            "SERIAL 7'S. 1 POINT FOR EACH CORRECT.",
            "MMSE",
            "ATTENTION AND CALCULATI",
            "4",
            "",
            "4",
            4,
            "",
            "",
            "",
            "",
            "",
            1,
            "SCREENING 1",
            -7,
            "TREATMENT",
            "2014-03-10",
            -8
          ],
          [
            23,
            "CDISCPILOT01",
            "QS",
            "01-701-1033",
            2005,
            "MMITM05",
            "ASK FOR THE 3 OBJECTS REPEATED ABOVE.",
            "MMSE",
            "RECALL",
            "1",
            "",
            "1",
            1,
            "",
            "",
            "",
            "",
            "",
            1,
            "SCREENING 1",
            -7,
            "TREATMENT",
            "2014-03-10",
            -8
          ],
          [
            24,
            "CDISCPILOT01",
            "QS",
            "01-701-1033",
            2006,
            "MMITM06",
            "NAME A PENCIL, AND WATCH (2 POINTS)",
            "MMSE",
            "LANGUAGE",
            "7",
            "",
            "7",
            7,
            "",
            "",
            "",
            "",
            "",
            1,
            "SCREENING 1",
            -7,
            "TREATMENT",
            "2014-03-10",
            -8
          ],
          [
            25,
            "CDISCPILOT01",
            "QS",
            "01-701-1034",
            2001,
            "MMITM01",
            "WHAT IS THE (YEAR) (SEASON) (DATE) ?",
            "MMSE",
            "ORIENTATION",
            "5",
            "",
            "5",
            5,
            "",
            "",
            "",
            "",
            "",
            1,
            "SCREENING 1",
            -7,
            "TREATMENT",
            "2014-06-24",
            -7
          ],
          [
            26,
            "CDISCPILOT01",
            "QS",
            "01-701-1034",
            2002,
            "MMITM02",
            "WHERE ARE WE: (STATE) (COUNTRY) (TOWN) ?",
            "MMSE",
            "ORIENTATION",
            "3",
            "",
            "3",
            3,
            "",
            "",
            "",
            "",
            "",
            1,
            "SCREENING 1",
            -7,
            "TREATMENT",
            "2014-06-24",
            -7
          ],
          [
            27,
            "CDISCPILOT01",
            "QS",
            "01-701-1034",
            2003,
            "MMITM03",
            "NAME 3 OBJECTS: 1 SECOND TO SAY EACH.",
            "MMSE",
            "REGISTRATION",
            "3",
            "",
            "3",
            3,
            "",
            "",
            "",
            "",
            "",
            1,
            "SCREENING 1",
            -7,
            "TREATMENT",
            "2014-06-24",
            -7
          ],
          [
            28,
            "CDISCPILOT01",
            "QS",
            "01-701-1034",
            2004,
            "MMITM04",
            "SERIAL 7'S. 1 POINT FOR EACH CORRECT.",
            "MMSE",
            "ATTENTION AND CALCULATI",
            "2",
            "",
            "2",
            2,
            "",
            "",
            "",
            "",
            "",
            1,
            "SCREENING 1",
            -7,
            "TREATMENT",
            "2014-06-24",
            -7
          ],
          [
            29,
            "CDISCPILOT01",
            "QS",
            "01-701-1034",
            2005,
            "MMITM05",
            "ASK FOR THE 3 OBJECTS REPEATED ABOVE.",
            "MMSE",
            "RECALL",
            "0",
            "",
            "0",
            0,
            "",
            "",
            "",
            "",
            "",
            1,
            "SCREENING 1",
            -7,
            "TREATMENT",
            "2014-06-24",
            -7
          ],
          [
            30,
            "CDISCPILOT01",
            "QS",
            "01-701-1034",
            2006,
            "MMITM06",
            "NAME A PENCIL, AND WATCH (2 POINTS)",
            "MMSE",
            "LANGUAGE",
            "8",
            "",
            "8",
            8,
            "",
            "",
            "",
            "",
            "",
            1,
            "SCREENING 1",
            -7,
            "TREATMENT",
            "2014-06-24",
            -7
          ],
          [
            31,
            "CDISCPILOT01",
            "QS",
            "01-701-1047",
            2001,
            "MMITM01",
            "WHAT IS THE (YEAR) (SEASON) (DATE) ?",
            "MMSE",
            "ORIENTATION",
            "5",
            "",
            "5",
            5,
            "",
            "",
            "",
            "",
            "",
            1,
            "SCREENING 1",
            -7,
            "TREATMENT",
            "2013-01-22",
            -21
          ],
          [
            32,
            "CDISCPILOT01",
            "QS",
            "01-701-1047",
            2002,
            "MMITM02",
            "WHERE ARE WE: (STATE) (COUNTRY) (TOWN) ?",
            "MMSE",
            "ORIENTATION",
            "2",
            "",
            "2",
            2,
            "",
            "",
            "",
            "",
            "",
            1,
            "SCREENING 1",
            -7,
            "TREATMENT",
            "2013-01-22",
            -21
          ],
          [
            33,
            "CDISCPILOT01",
            "QS",
            "01-701-1047",
            2003,
            "MMITM03",
            "NAME 3 OBJECTS: 1 SECOND TO SAY EACH.",
            "MMSE",
            "REGISTRATION",
            "3",
            "",
            "3",
            3,
            "",
            "",
            "",
            "",
            "",
            1,
            "SCREENING 1",
            -7,
            "TREATMENT",
            "2013-01-22",
            -21
          ],
          [
            34,
            "CDISCPILOT01",
            "QS",
            "01-701-1047",
            2004,
            "MMITM04",
            "SERIAL 7'S. 1 POINT FOR EACH CORRECT.",
            "MMSE",
            "ATTENTION AND CALCULATI",
            "4",
            "",
            "4",
            4,
            "",
            "",
            "",
            "",
            "",
            1,
            "SCREENING 1",
            -7,
            "TREATMENT",
            "2013-01-22",
            -21
          ],
          [
            35,
            "CDISCPILOT01",
            "QS",
            "01-701-1047",
            2005,
            "MMITM05",
            "ASK FOR THE 3 OBJECTS REPEATED ABOVE.",
            "MMSE",
            "RECALL",
            "1",
            "",
            "1",
            1,
            "",
            "",
            "",
            "",
            "",
            1,
            "SCREENING 1",
            -7,
            "TREATMENT",
            "2013-01-22",
            -21
          ],
          [
            36,
            "CDISCPILOT01",
            "QS",
            "01-701-1047",
            2006,
            "MMITM06",
            "NAME A PENCIL, AND WATCH (2 POINTS)",
            "MMSE",
            "LANGUAGE",
            "8",
            "",
            "8",
            8,
            "",
            "",
            "",
            "",
            "",
            1,
            "SCREENING 1",
            -7,
            "TREATMENT",
            "2013-01-22",
            -21
          ],
          [
            37,
            "CDISCPILOT01",
            "QS",
            "01-701-1097",
            2001,
            "MMITM01",
            "WHAT IS THE (YEAR) (SEASON) (DATE) ?",
            "MMSE",
            "ORIENTATION",
            "1",
            "",
            "1",
            1,
            "",
            "",
            "",
            "",
            "",
            1,
            "SCREENING 1",
            -7,
            "TREATMENT",
            "2013-12-23",
            -9
          ],
          [
            38,
            "CDISCPILOT01",
            "QS",
            "01-701-1097",
            2002,
            "MMITM02",
            "WHERE ARE WE: (STATE) (COUNTRY) (TOWN) ?",
            "MMSE",
            "ORIENTATION",
            "0",
            "",
            "0",
            0,
            "",
            "",
            "",
            "",
            "",
            1,
            "SCREENING 1",
            -7,
            "TREATMENT",
            "2013-12-23",
            -9
          ],
          [
            39,
            "CDISCPILOT01",
            "QS",
            "01-701-1097",
            2003,
            "MMITM03",
            "NAME 3 OBJECTS: 1 SECOND TO SAY EACH.",
            "MMSE",
            "REGISTRATION",
            "3",
            "",
            "3",
            3,
            "",
            "",
            "",
            "",
            "",
            1,
            "SCREENING 1",
            -7,
            "TREATMENT",
            "2013-12-23",
            -9
          ],
          [
            40,
            "CDISCPILOT01",
            "QS",
            "01-701-1097",
            2004,
            "MMITM04",
            "SERIAL 7'S. 1 POINT FOR EACH CORRECT.",
            "MMSE",
            "ATTENTION AND CALCULATI",
            "0",
            "",
            "0",
            0,
            "",
            "",
            "",
            "",
            "",
            1,
            "SCREENING 1",
            -7,
            "TREATMENT",
            "2013-12-23",
            -9
          ],
          [
            41,
            "CDISCPILOT01",
            "QS",
            "01-701-1097",
            2005,
            "MMITM05",
            "ASK FOR THE 3 OBJECTS REPEATED ABOVE.",
            "MMSE",
            "RECALL",
            "0",
            "",
            "0",
            0,
            "",
            "",
            "",
            "",
            "",
            1,
            "SCREENING 1",
            -7,
            "TREATMENT",
            "2013-12-23",
            -9
          ],
          [
            42,
            "CDISCPILOT01",
            "QS",
            "01-701-1097",
            2006,
            "MMITM06",
            "NAME A PENCIL, AND WATCH (2 POINTS)",
            "MMSE",
            "LANGUAGE",
            "6",
            "",
            "6",
            6,
            "",
            "",
            "",
            "",
            "",
            1,
            "SCREENING 1",
            -7,
            "TREATMENT",
            "2013-12-23",
            -9
          ],
          [
            43,
            "CDISCPILOT01",
            "QS",
            "01-701-1111",
            2001,
            "MMITM01",
            "WHAT IS THE (YEAR) (SEASON) (DATE) ?",
            "MMSE",
            "ORIENTATION",
            "4",
            "",
            "4",
            4,
            "",
            "",
            "",
            "",
            "",
            1,
            "SCREENING 1",
            -7,
            "TREATMENT",
            "2012-08-25",
            -13
          ],
          [
            44,
            "CDISCPILOT01",
            "QS",
            "01-701-1111",
            2002,
            "MMITM02",
            "WHERE ARE WE: (STATE) (COUNTRY) (TOWN) ?",
            "MMSE",
            "ORIENTATION",
            "5",
            "",
            "5",
            5,
            "",
            "",
            "",
            "",
            "",
            1,
            "SCREENING 1",
            -7,
            "TREATMENT",
            "2012-08-25",
            -13
          ],
          [
            45,
            "CDISCPILOT01",
            "QS",
            "01-701-1111",
            2003,
            "MMITM03",
            "NAME 3 OBJECTS: 1 SECOND TO SAY EACH.",
            "MMSE",
            "REGISTRATION",
            "3",
            "",
            "3",
            3,
            "",
            "",
            "",
            "",
            "",
            1,
            "SCREENING 1",
            -7,
            "TREATMENT",
            "2012-08-25",
            -13
          ],
          [
            46,
            "CDISCPILOT01",
            "QS",
            "01-701-1111",
            2004,
            "MMITM04",
            "SERIAL 7'S. 1 POINT FOR EACH CORRECT.",
            "MMSE",
            "ATTENTION AND CALCULATI",
            "4",
            "",
            "4",
            4,
            "",
            "",
            "",
            "",
            "",
            1,
            "SCREENING 1",
            -7,
            "TREATMENT",
            "2012-08-25",
            -13
          ],
          [
            47,
            "CDISCPILOT01",
            "QS",
            "01-701-1111",
            2005,
            "MMITM05",
            "ASK FOR THE 3 OBJECTS REPEATED ABOVE.",
            "MMSE",
            "RECALL",
            "0",
            "",
            "0",
            0,
            "",
            "",
            "",
            "",
            "",
            1,
            "SCREENING 1",
            -7,
            "TREATMENT",
            "2012-08-25",
            -13
          ],
          [
            48,
            "CDISCPILOT01",
            "QS",
            "01-701-1111",
            2006,
            "MMITM06",
            "NAME A PENCIL, AND WATCH (2 POINTS)",
            "MMSE",
            "LANGUAGE",
            "7",
            "",
            "7",
            7,
            "",
            "",
            "",
            "",
            "",
            1,
            "SCREENING 1",
            -7,
            "TREATMENT",
            "2012-08-25",
            -13
          ],
          [
            49,
            "CDISCPILOT01",
            "QS",
            "01-701-1115",
            2001,
            "MMITM01",
            "WHAT IS THE (YEAR) (SEASON) (DATE) ?",
            "MMSE",
            "ORIENTATION",
            "4",
            "",
            "4",
            4,
            "",
            "",
            "",
            "",
            "",
            1,
            "SCREENING 1",
            -7,
            "TREATMENT",
            "2012-11-23",
            -7
          ],
          [
            50,
            "CDISCPILOT01",
            "QS",
            "01-701-1115",
            2002,
            "MMITM02",
            "WHERE ARE WE: (STATE) (COUNTRY) (TOWN) ?",
            "MMSE",
            "ORIENTATION",
            "2",
            "",
            "2",
            2,
            "",
            "",
            "",
            "",
            "",
            1,
            "SCREENING 1",
            -7,
            "TREATMENT",
            "2012-11-23",
            -7
          ],
          [
            51,
            "CDISCPILOT01",
            "QS",
            "01-701-1115",
            2003,
            "MMITM03",
            "NAME 3 OBJECTS: 1 SECOND TO SAY EACH.",
            "MMSE",
            "REGISTRATION",
            "3",
            "",
            "3",
            3,
            "",
            "",
            "",
            "",
            "",
            1,
            "SCREENING 1",
            -7,
            "TREATMENT",
            "2012-11-23",
            -7
          ],
          [
            52,
            "CDISCPILOT01",
            "QS",
            "01-701-1115",
            2004,
            "MMITM04",
            "SERIAL 7'S. 1 POINT FOR EACH CORRECT.",
            "MMSE",
            "ATTENTION AND CALCULATI",
            "3",
            "",
            "3",
            3,
            "",
            "",
            "",
            "",
            "",
            1,
            "SCREENING 1",
            -7,
            "TREATMENT",
            "2012-11-23",
            -7
          ],
          [
            53,
            "CDISCPILOT01",
            "QS",
            "01-701-1115",
            2005,
            "MMITM05",
            "ASK FOR THE 3 OBJECTS REPEATED ABOVE.",
            "MMSE",
            "RECALL",
            "1",
            "",
            "1",
            1,
            "",
            "",
            "",
            "",
            "",
            1,
            "SCREENING 1",
            -7,
            "TREATMENT",
            "2012-11-23",
            -7
          ],
          [
            54,
            "CDISCPILOT01",
            "QS",
            "01-701-1115",
            2006,
            "MMITM06",
            "NAME A PENCIL, AND WATCH (2 POINTS)",
            "MMSE",
            "LANGUAGE",
            "7",
            "",
            "7",
            7,
            "",
            "",
            "",
            "",
            "",
            1,
            "SCREENING 1",
            -7,
            "TREATMENT",
            "2012-11-23",
            -7
          ],
          [
            55,
            "CDISCPILOT01",
            "QS",
            "01-701-1118",
            2001,
            "MMITM01",
            "WHAT IS THE (YEAR) (SEASON) (DATE) ?",
            "MMSE",
            "ORIENTATION",
            "3",
            "",
            "3",
            3,
            "",
            "",
            "",
            "",
            "",
            1,
            "SCREENING 1",
            -7,
            "TREATMENT",
            "2014-02-27",
            -13
          ],
          [
            56,
            "CDISCPILOT01",
            "QS",
            "01-701-1118",
            2002,
            "MMITM02",
            "WHERE ARE WE: (STATE) (COUNTRY) (TOWN) ?",
            "MMSE",
            "ORIENTATION",
            "4",
            "",
            "4",
            4,
            "",
            "",
            "",
            "",
            "",
            1,
            "SCREENING 1",
            -7,
            "TREATMENT",
            "2014-02-27",
            -13
          ],
          [
            57,
            "CDISCPILOT01",
            "QS",
            "01-701-1118",
            2003,
            "MMITM03",
            "NAME 3 OBJECTS: 1 SECOND TO SAY EACH.",
            "MMSE",
            "REGISTRATION",
            "3",
            "",
            "3",
            3,
            "",
            "",
            "",
            "",
            "",
            1,
            "SCREENING 1",
            -7,
            "TREATMENT",
            "2014-02-27",
            -13
          ],
          [
            58,
            "CDISCPILOT01",
            "QS",
            "01-701-1118",
            2004,
            "MMITM04",
            "SERIAL 7'S. 1 POINT FOR EACH CORRECT.",
            "MMSE",
            "ATTENTION AND CALCULATI",
            "2",
            "",
            "2",
            2,
            "",
            "",
            "",
            "",
            "",
            1,
            "SCREENING 1",
            -7,
            "TREATMENT",
            "2014-02-27",
            -13
          ],
          [
            59,
            "CDISCPILOT01",
            "QS",
            "01-701-1118",
            2005,
            "MMITM05",
            "ASK FOR THE 3 OBJECTS REPEATED ABOVE.",
            "MMSE",
            "RECALL",
            "1",
            "",
            "1",
            1,
            "",
            "",
            "",
            "",
            "",
            1,
            "SCREENING 1",
            -7,
            "TREATMENT",
            "2014-02-27",
            -13
          ],
          [
            60,
            "CDISCPILOT01",
            "QS",
            "01-701-1118",
            2006,
            "MMITM06",
            "NAME A PENCIL, AND WATCH (2 POINTS)",
            "MMSE",
            "LANGUAGE",
            "7",
            "",
            "7",
            7,
            "",
            "",
            "",
            "",
            "",
            1,
            "SCREENING 1",
            -7,
            "TREATMENT",
            "2014-02-27",
            -13
          ],
          [
            61,
            "CDISCPILOT01",
            "QS",
            "01-701-1130",
            2001,
            "MMITM01",
            "WHAT IS THE (YEAR) (SEASON) (DATE) ?",
            "MMSE",
            "ORIENTATION",
            "1",
            "",
            "1",
            1,
            "",
            "",
            "",
            "",
            "",
            1,
            "SCREENING 1",
            -7,
            "TREATMENT",
            "2014-02-09",
            -6
          ],
          [
            62,
            "CDISCPILOT01",
            "QS",
            "01-701-1130",
            2002,
            "MMITM02",
            "WHERE ARE WE: (STATE) (COUNTRY) (TOWN) ?",
            "MMSE",
            "ORIENTATION",
            "4",
            "",
            "4",
            4,
            "",
            "",
            "",
            "",
            "",
            1,
            "SCREENING 1",
            -7,
            "TREATMENT",
            "2014-02-09",
            -6
          ],
          [
            63,
            "CDISCPILOT01",
            "QS",
            "01-701-1130",
            2003,
            "MMITM03",
            "NAME 3 OBJECTS: 1 SECOND TO SAY EACH.",
            "MMSE",
            "REGISTRATION",
            "3",
            "",
            "3",
            3,
            "",
            "",
            "",
            "",
            "",
            1,
            "SCREENING 1",
            -7,
            "TREATMENT",
            "2014-02-09",
            -6
          ],
          [
            64,
            "CDISCPILOT01",
            "QS",
            "01-701-1130",
            2004,
            "MMITM04",
            "SERIAL 7'S. 1 POINT FOR EACH CORRECT.",
            "MMSE",
            "ATTENTION AND CALCULATI",
            "5",
            "",
            "5",
            5,
            "",
            "",
            "",
            "",
            "",
            1,
            "SCREENING 1",
            -7,
            "TREATMENT",
            "2014-02-09",
            -6
          ],
          [
            65,
            "CDISCPILOT01",
            "QS",
            "01-701-1130",
            2005,
            "MMITM05",
            "ASK FOR THE 3 OBJECTS REPEATED ABOVE.",
            "MMSE",
            "RECALL",
            "0",
            "",
            "0",
            0,
            "",
            "",
            "",
            "",
            "",
            1,
            "SCREENING 1",
            -7,
            "TREATMENT",
            "2014-02-09",
            -6
          ],
          [
            66,
            "CDISCPILOT01",
            "QS",
            "01-701-1130",
            2006,
            "MMITM06",
            "NAME A PENCIL, AND WATCH (2 POINTS)",
            "MMSE",
            "LANGUAGE",
            "6",
            "",
            "6",
            6,
            "",
            "",
            "",
            "",
            "",
            1,
            "SCREENING 1",
            -7,
            "TREATMENT",
            "2014-02-09",
            -6
          ],
          [
            67,
            "CDISCPILOT01",
            "QS",
            "01-701-1133",
            2001,
            "MMITM01",
            "WHAT IS THE (YEAR) (SEASON) (DATE) ?",
            "MMSE",
            "ORIENTATION",
            "1",
            "",
            "1",
            1,
            "",
            "",
            "",
            "",
            "",
            1,
            "SCREENING 1",
            -7,
            "TREATMENT",
            "2012-10-23",
            -5
          ],
          [
            68,
            "CDISCPILOT01",
            "QS",
            "01-701-1133",
            2002,
            "MMITM02",
            "WHERE ARE WE: (STATE) (COUNTRY) (TOWN) ?",
            "MMSE",
            "ORIENTATION",
            "5",
            "",
            "5",
            5,
            "",
            "",
            "",
            "",
            "",
            1,
            "SCREENING 1",
            -7,
            "TREATMENT",
            "2012-10-23",
            -5
          ],
          [
            69,
            "CDISCPILOT01",
            "QS",
            "01-701-1133",
            2003,
            "MMITM03",
            "NAME 3 OBJECTS: 1 SECOND TO SAY EACH.",
            "MMSE",
            "REGISTRATION",
            "3",
            "",
            "3",
            3,
            "",
            "",
            "",
            "",
            "",
            1,
            "SCREENING 1",
            -7,
            "TREATMENT",
            "2012-10-23",
            -5
          ],
          [
            70,
            "CDISCPILOT01",
            "QS",
            "01-701-1133",
            2004,
            "MMITM04",
            "SERIAL 7'S. 1 POINT FOR EACH CORRECT.",
            "MMSE",
            "ATTENTION AND CALCULATI",
            "5",
            "",
            "5",
            5,
            "",
            "",
            "",
            "",
            "",
            1,
            "SCREENING 1",
            -7,
            "TREATMENT",
            "2012-10-23",
            -5
          ],
          [
            71,
            "CDISCPILOT01",
            "QS",
            "01-701-1133",
            2005,
            "MMITM05",
            "ASK FOR THE 3 OBJECTS REPEATED ABOVE.",
            "MMSE",
            "RECALL",
            "0",
            "",
            "0",
            0,
            "",
            "",
            "",
            "",
            "",
            1,
            "SCREENING 1",
            -7,
            "TREATMENT",
            "2012-10-23",
            -5
          ],
          [
            72,
            "CDISCPILOT01",
            "QS",
            "01-701-1133",
            2006,
            "MMITM06",
            "NAME A PENCIL, AND WATCH (2 POINTS)",
            "MMSE",
            "LANGUAGE",
            "7",
            "",
            "7",
            7,
            "",
            "",
            "",
            "",
            "",
            1,
            "SCREENING 1",
            -7,
            "TREATMENT",
            "2012-10-23",
            -5
          ],
          [
            73,
            "CDISCPILOT01",
            "QS",
            "01-701-1146",
            2001,
            "MMITM01",
            "WHAT IS THE (YEAR) (SEASON) (DATE) ?",
            "MMSE",
            "ORIENTATION",
            "4",
            "",
            "4",
            4,
            "",
            "",
            "",
            "",
            "",
            1,
            "SCREENING 1",
            -7,
            "TREATMENT",
            "2013-05-07",
            -13
          ],
          [
            74,
            "CDISCPILOT01",
            "QS",
            "01-701-1146",
            2002,
            "MMITM02",
            "WHERE ARE WE: (STATE) (COUNTRY) (TOWN) ?",
            "MMSE",
            "ORIENTATION",
            "4",
            "",
            "4",
            4,
            "",
            "",
            "",
            "",
            "",
            1,
            "SCREENING 1",
            -7,
            "TREATMENT",
            "2013-05-07",
            -13
          ],
          [
            75,
            "CDISCPILOT01",
            "QS",
            "01-701-1146",
            2003,
            "MMITM03",
            "NAME 3 OBJECTS: 1 SECOND TO SAY EACH.",
            "MMSE",
            "REGISTRATION",
            "3",
            "",
            "3",
            3,
            "",
            "",
            "",
            "",
            "",
            1,
            "SCREENING 1",
            -7,
            "TREATMENT",
            "2013-05-07",
            -13
          ],
          [
            76,
            "CDISCPILOT01",
            "QS",
            "01-701-1146",
            2004,
            "MMITM04",
            "SERIAL 7'S. 1 POINT FOR EACH CORRECT.",
            "MMSE",
            "ATTENTION AND CALCULATI",
            "5",
            "",
            "5",
            5,
            "",
            "",
            "",
            "",
            "",
            1,
            "SCREENING 1",
            -7,
            "TREATMENT",
            "2013-05-07",
            -13
          ],
          [
            77,
            "CDISCPILOT01",
            "QS",
            "01-701-1146",
            2005,
            "MMITM05",
            "ASK FOR THE 3 OBJECTS REPEATED ABOVE.",
            "MMSE",
            "RECALL",
            "2",
            "",
            "2",
            2,
            "",
            "",
            "",
            "",
            "",
            1,
            "SCREENING 1",
            -7,
            "TREATMENT",
            "2013-05-07",
            -13
          ],
          [
            78,
            "CDISCPILOT01",
            "QS",
            "01-701-1146",
            2006,
            "MMITM06",
            "NAME A PENCIL, AND WATCH (2 POINTS)",
            "MMSE",
            "LANGUAGE",
            "4",
            "",
            "4",
            4,
            "",
            "",
            "",
            "",
            "",
            1,
            "SCREENING 1",
            -7,
            "TREATMENT",
            "2013-05-07",
            -13
          ],
          [
            79,
            "CDISCPILOT01",
            "QS",
            "01-701-1148",
            2001,
            "MMITM01",
            "WHAT IS THE (YEAR) (SEASON) (DATE) ?",
            "MMSE",
            "ORIENTATION",
            "3",
            "",
            "3",
            3,
            "",
            "",
            "",
            "",
            "",
            1,
            "SCREENING 1",
            -7,
            "TREATMENT",
            "2013-08-14",
            -9
          ],
          [
            80,
            "CDISCPILOT01",
            "QS",
            "01-701-1148",
            2002,
            "MMITM02",
            "WHERE ARE WE: (STATE) (COUNTRY) (TOWN) ?",
            "MMSE",
            "ORIENTATION",
            "3",
            "",
            "3",
            3,
            "",
            "",
            "",
            "",
            "",
            1,
            "SCREENING 1",
            -7,
            "TREATMENT",
            "2013-08-14",
            -9
          ],
          [
            81,
            "CDISCPILOT01",
            "QS",
            "01-701-1148",
            2003,
            "MMITM03",
            "NAME 3 OBJECTS: 1 SECOND TO SAY EACH.",
            "MMSE",
            "REGISTRATION",
            "3",
            "",
            "3",
            3,
            "",
            "",
            "",
            "",
            "",
            1,
            "SCREENING 1",
            -7,
            "TREATMENT",
            "2013-08-14",
            -9
          ],
          [
            82,
            "CDISCPILOT01",
            "QS",
            "01-701-1148",
            2004,
            "MMITM04",
            "SERIAL 7'S. 1 POINT FOR EACH CORRECT.",
            "MMSE",
            "ATTENTION AND CALCULATI",
            "3",
            "",
            "3",
            3,
            "",
            "",
            "",
            "",
            "",
            1,
            "SCREENING 1",
            -7,
            "TREATMENT",
            "2013-08-14",
            -9
          ],
          [
            83,
            "CDISCPILOT01",
            "QS",
            "01-701-1148",
            2005,
            "MMITM05",
            "ASK FOR THE 3 OBJECTS REPEATED ABOVE.",
            "MMSE",
            "RECALL",
            "0",
            "",
            "0",
            0,
            "",
            "",
            "",
            "",
            "",
            1,
            "SCREENING 1",
            -7,
            "TREATMENT",
            "2013-08-14",
            -9
          ],
          [
            84,
            "CDISCPILOT01",
            "QS",
            "01-701-1148",
            2006,
            "MMITM06",
            "NAME A PENCIL, AND WATCH (2 POINTS)",
            "MMSE",
            "LANGUAGE",
            "9",
            "",
            "9",
            9,
            "",
            "",
            "",
            "",
            "",
            1,
            "SCREENING 1",
            -7,
            "TREATMENT",
            "2013-08-14",
            -9
          ],
          [
            85,
            "CDISCPILOT01",
            "QS",
            "01-701-1153",
            2001,
            "MMITM01",
            "WHAT IS THE (YEAR) (SEASON) (DATE) ?",
            "MMSE",
            "ORIENTATION",
            "0",
            "",
            "0",
            0,
            "",
            "",
            "",
            "",
            "",
            1,
            "SCREENING 1",
            -7,
            "TREATMENT",
            "2013-09-06",
            -17
          ],
          [
            86,
            "CDISCPILOT01",
            "QS",
            "01-701-1153",
            2002,
            "MMITM02",
            "WHERE ARE WE: (STATE) (COUNTRY) (TOWN) ?",
            "MMSE",
            "ORIENTATION",
            "0",
            "",
            "0",
            0,
            "",
            "",
            "",
            "",
            "",
            1,
            "SCREENING 1",
            -7,
            "TREATMENT",
            "2013-09-06",
            -17
          ],
          [
            87,
            "CDISCPILOT01",
            "QS",
            "01-701-1153",
            2003,
            "MMITM03",
            "NAME 3 OBJECTS: 1 SECOND TO SAY EACH.",
            "MMSE",
            "REGISTRATION",
            "3",
            "",
            "3",
            3,
            "",
            "",
            "",
            "",
            "",
            1,
            "SCREENING 1",
            -7,
            "TREATMENT",
            "2013-09-06",
            -17
          ],
          [
            88,
            "CDISCPILOT01",
            "QS",
            "01-701-1153",
            2004,
            "MMITM04",
            "SERIAL 7'S. 1 POINT FOR EACH CORRECT.",
            "MMSE",
            "ATTENTION AND CALCULATI",
            "2",
            "",
            "2",
            2,
            "",
            "",
            "",
            "",
            "",
            1,
            "SCREENING 1",
            -7,
            "TREATMENT",
            "2013-09-06",
            -17
          ],
          [
            89,
            "CDISCPILOT01",
            "QS",
            "01-701-1153",
            2005,
            "MMITM05",
            "ASK FOR THE 3 OBJECTS REPEATED ABOVE.",
            "MMSE",
            "RECALL",
            "0",
            "",
            "0",
            0,
            "",
            "",
            "",
            "",
            "",
            1,
            "SCREENING 1",
            -7,
            "TREATMENT",
            "2013-09-06",
            -17
          ],
          [
            90,
            "CDISCPILOT01",
            "QS",
            "01-701-1153",
            2006,
            "MMITM06",
            "NAME A PENCIL, AND WATCH (2 POINTS)",
            "MMSE",
            "LANGUAGE",
            "5",
            "",
            "5",
            5,
            "",
            "",
            "",
            "",
            "",
            1,
            "SCREENING 1",
            -7,
            "TREATMENT",
            "2013-09-06",
            -17
          ],
          [
            91,
            "CDISCPILOT01",
            "QS",
            "01-701-1180",
            2001,
            "MMITM01",
            "WHAT IS THE (YEAR) (SEASON) (DATE) ?",
            "MMSE",
            "ORIENTATION",
            "3",
            "",
            "3",
            3,
            "",
            "",
            "",
            "",
            "",
            1,
            "SCREENING 1",
            -7,
            "TREATMENT",
            "2013-01-28",
            -15
          ],
          [
            92,
            "CDISCPILOT01",
            "QS",
            "01-701-1180",
            2002,
            "MMITM02",
            "WHERE ARE WE: (STATE) (COUNTRY) (TOWN) ?",
            "MMSE",
            "ORIENTATION",
            "3",
            "",
            "3",
            3,
            "",
            "",
            "",
            "",
            "",
            1,
            "SCREENING 1",
            -7,
            "TREATMENT",
            "2013-01-28",
            -15
          ],
          [
            93,
            "CDISCPILOT01",
            "QS",
            "01-701-1180",
            2003,
            "MMITM03",
            "NAME 3 OBJECTS: 1 SECOND TO SAY EACH.",
            "MMSE",
            "REGISTRATION",
            "3",
            "",
            "3",
            3,
            "",
            "",
            "",
            "",
            "",
            1,
            "SCREENING 1",
            -7,
            "TREATMENT",
            "2013-01-28",
            -15
          ],
          [
            94,
            "CDISCPILOT01",
            "QS",
            "01-701-1180",
            2004,
            "MMITM04",
            "SERIAL 7'S. 1 POINT FOR EACH CORRECT.",
            "MMSE",
            "ATTENTION AND CALCULATI",
            "3",
            "",
            "3",
            3,
            "",
            "",
            "",
            "",
            "",
            1,
            "SCREENING 1",
            -7,
            "TREATMENT",
            "2013-01-28",
            -15
          ],
          [
            95,
            "CDISCPILOT01",
            "QS",
            "01-701-1180",
            2005,
            "MMITM05",
            "ASK FOR THE 3 OBJECTS REPEATED ABOVE.",
            "MMSE",
            "RECALL",
            "0",
            "",
            "0",
            0,
            "",
            "",
            "",
            "",
            "",
            1,
            "SCREENING 1",
            -7,
            "TREATMENT",
            "2013-01-28",
            -15
          ],
          [
            96,
            "CDISCPILOT01",
            "QS",
            "01-701-1180",
            2006,
            "MMITM06",
            "NAME A PENCIL, AND WATCH (2 POINTS)",
            "MMSE",
            "LANGUAGE",
            "7",
            "",
            "7",
            7,
            "",
            "",
            "",
            "",
            "",
            1,
            "SCREENING 1",
            -7,
            "TREATMENT",
            "2013-01-28",
            -15
          ],
          [
            97,
            "CDISCPILOT01",
            "QS",
            "01-701-1181",
            2001,
            "MMITM01",
            "WHAT IS THE (YEAR) (SEASON) (DATE) ?",
            "MMSE",
            "ORIENTATION",
            "0",
            "",
            "0",
            0,
            "",
            "",
            "",
            "",
            "",
            1,
            "SCREENING 1",
            -7,
            "TREATMENT",
            "2013-11-26",
            -9
          ],
          [
            98,
            "CDISCPILOT01",
            "QS",
            "01-701-1181",
            2002,
            "MMITM02",
            "WHERE ARE WE: (STATE) (COUNTRY) (TOWN) ?",
            "MMSE",
            "ORIENTATION",
            "1",
            "",
            "1",
            1,
            "",
            "",
            "",
            "",
            "",
            1,
            "SCREENING 1",
            -7,
            "TREATMENT",
            "2013-11-26",
            -9
          ],
          [
            99,
            "CDISCPILOT01",
            "QS",
            "01-701-1181",
            2003,
            "MMITM03",
            "NAME 3 OBJECTS: 1 SECOND TO SAY EACH.",
            "MMSE",
            "REGISTRATION",
            "3",
            "",
            "3",
            3,
            "",
            "",
            "",
            "",
            "",
            1,
            "SCREENING 1",
            -7,
            "TREATMENT",
            "2013-11-26",
            -9
          ],
          [
            100,
            "CDISCPILOT01",
            "QS",
            "01-701-1181",
            2004,
            "MMITM04",
            "SERIAL 7'S. 1 POINT FOR EACH CORRECT.",
            "MMSE",
            "ATTENTION AND CALCULATI",
            "0",
            "",
            "0",
            0,
            "",
            "",
            "",
            "",
            "",
            1,
            "SCREENING 1",
            -7,
            "TREATMENT",
            "2013-11-26",
            -9
          ],
          [
            101,
            "CDISCPILOT01",
            "QS",
            "01-701-1181",
            2005,
            "MMITM05",
            "ASK FOR THE 3 OBJECTS REPEATED ABOVE.",
            "MMSE",
            "RECALL",
            "0",
            "",
            "0",
            0,
            "",
            "",
            "",
            "",
            "",
            1,
            "SCREENING 1",
            -7,
            "TREATMENT",
            "2013-11-26",
            -9
          ],
          [
            102,
            "CDISCPILOT01",
            "QS",
            "01-701-1181",
            2006,
            "MMITM06",
            "NAME A PENCIL, AND WATCH (2 POINTS)",
            "MMSE",
            "LANGUAGE",
            "6",
            "",
            "6",
            6,
            "",
            "",
            "",
            "",
            "",
            1,
            "SCREENING 1",
            -7,
            "TREATMENT",
            "2013-11-26",
            -9
          ],
          [
            103,
            "CDISCPILOT01",
            "QS",
            "01-701-1188",
            2001,
            "MMITM01",
            "WHAT IS THE (YEAR) (SEASON) (DATE) ?",
            "MMSE",
            "ORIENTATION",
            "5",
            "",
            "5",
            5,
            "",
            "",
            "",
            "",
            "",
            1,
            "SCREENING 1",
            -7,
            "TREATMENT",
            "2013-02-03",
            -12
          ],
          [
            104,
            "CDISCPILOT01",
            "QS",
            "01-701-1188",
            2002,
            "MMITM02",
            "WHERE ARE WE: (STATE) (COUNTRY) (TOWN) ?",
            "MMSE",
            "ORIENTATION",
            "4",
            "",
            "4",
            4,
            "",
            "",
            "",
            "",
            "",
            1,
            "SCREENING 1",
            -7,
            "TREATMENT",
            "2013-02-03",
            -12
          ],
          [
            105,
            "CDISCPILOT01",
            "QS",
            "01-701-1188",
            2003,
            "MMITM03",
            "NAME 3 OBJECTS: 1 SECOND TO SAY EACH.",
            "MMSE",
            "REGISTRATION",
            "3",
            "",
            "3",
            3,
            "",
            "",
            "",
            "",
            "",
            1,
            "SCREENING 1",
            -7,
            "TREATMENT",
            "2013-02-03",
            -12
          ],
          [
            106,
            "CDISCPILOT01",
            "QS",
            "01-701-1188",
            2004,
            "MMITM04",
            "SERIAL 7'S. 1 POINT FOR EACH CORRECT.",
            "MMSE",
            "ATTENTION AND CALCULATI",
            "5",
            "",
            "5",
            5,
            "",
            "",
            "",
            "",
            "",
            1,
            "SCREENING 1",
            -7,
            "TREATMENT",
            "2013-02-03",
            -12
          ],
          [
            107,
            "CDISCPILOT01",
            "QS",
            "01-701-1188",
            2005,
            "MMITM05",
            "ASK FOR THE 3 OBJECTS REPEATED ABOVE.",
            "MMSE",
            "RECALL",
            "1",
            "",
            "1",
            1,
            "",
            "",
            "",
            "",
            "",
            1,
            "SCREENING 1",
            -7,
            "TREATMENT",
            "2013-02-03",
            -12
          ],
          [
            108,
            "CDISCPILOT01",
            "QS",
            "01-701-1188",
            2006,
            "MMITM06",
            "NAME A PENCIL, AND WATCH (2 POINTS)",
            "MMSE",
            "LANGUAGE",
            "5",
            "",
            "5",
            5,
            "",
            "",
            "",
            "",
            "",
            1,
            "SCREENING 1",
            -7,
            "TREATMENT",
            "2013-02-03",
            -12
          ],
          [
            109,
            "CDISCPILOT01",
            "QS",
            "01-701-1192",
            2001,
            "MMITM01",
            "WHAT IS THE (YEAR) (SEASON) (DATE) ?",
            "MMSE",
            "ORIENTATION",
            "2",
            "",
            "2",
            2,
            "",
            "",
            "",
            "",
            "",
            1,
            "SCREENING 1",
            -7,
            "TREATMENT",
            "2012-07-08",
            -14
          ],
          [
            110,
            "CDISCPILOT01",
            "QS",
            "01-701-1192",
            2002,
            "MMITM02",
            "WHERE ARE WE: (STATE) (COUNTRY) (TOWN) ?",
            "MMSE",
            "ORIENTATION",
            "4",
            "",
            "4",
            4,
            "",
            "",
            "",
            "",
            "",
            1,
            "SCREENING 1",
            -7,
            "TREATMENT",
            "2012-07-08",
            -14
          ],
          [
            111,
            "CDISCPILOT01",
            "QS",
            "01-701-1192",
            2003,
            "MMITM03",
            "NAME 3 OBJECTS: 1 SECOND TO SAY EACH.",
            "MMSE",
            "REGISTRATION",
            "3",
            "",
            "3",
            3,
            "",
            "",
            "",
            "",
            "",
            1,
            "SCREENING 1",
            -7,
            "TREATMENT",
            "2012-07-08",
            -14
          ],
          [
            112,
            "CDISCPILOT01",
            "QS",
            "01-701-1192",
            2004,
            "MMITM04",
            "SERIAL 7'S. 1 POINT FOR EACH CORRECT.",
            "MMSE",
            "ATTENTION AND CALCULATI",
            "5",
            "",
            "5",
            5,
            "",
            "",
            "",
            "",
            "",
            1,
            "SCREENING 1",
            -7,
            "TREATMENT",
            "2012-07-08",
            -14
          ],
          [
            113,
            "CDISCPILOT01",
            "QS",
            "01-701-1192",
            2005,
            "MMITM05",
            "ASK FOR THE 3 OBJECTS REPEATED ABOVE.",
            "MMSE",
            "RECALL",
            "1",
            "",
            "1",
            1,
            "",
            "",
            "",
            "",
            "",
            1,
            "SCREENING 1",
            -7,
            "TREATMENT",
            "2012-07-08",
            -14
          ],
          [
            114,
            "CDISCPILOT01",
            "QS",
            "01-701-1192",
            2006,
            "MMITM06",
            "NAME A PENCIL, AND WATCH (2 POINTS)",
            "MMSE",
            "LANGUAGE",
            "8",
            "",
            "8",
            8,
            "",
            "",
            "",
            "",
            "",
            1,
            "SCREENING 1",
            -7,
            "TREATMENT",
            "2012-07-08",
            -14
          ],
          [
            115,
            "CDISCPILOT01",
            "QS",
            "01-701-1203",
            2001,
            "MMITM01",
            "WHAT IS THE (YEAR) (SEASON) (DATE) ?",
            "MMSE",
            "ORIENTATION",
            "1",
            "",
            "1",
            1,
            "",
            "",
            "",
            "",
            "",
            1,
            "SCREENING 1",
            -7,
            "TREATMENT",
            "2013-01-25",
            -8
          ],
          [
            116,
            "CDISCPILOT01",
            "QS",
            "01-701-1203",
            2002,
            "MMITM02",
            "WHERE ARE WE: (STATE) (COUNTRY) (TOWN) ?",
            "MMSE",
            "ORIENTATION",
            "3",
            "",
            "3",
            3,
            "",
            "",
            "",
            "",
            "",
            1,
            "SCREENING 1",
            -7,
            "TREATMENT",
            "2013-01-25",
            -8
          ],
          [
            117,
            "CDISCPILOT01",
            "QS",
            "01-701-1203",
            2003,
            "MMITM03",
            "NAME 3 OBJECTS: 1 SECOND TO SAY EACH.",
            "MMSE",
            "REGISTRATION",
            "3",
            "",
            "3",
            3,
            "",
            "",
            "",
            "",
            "",
            1,
            "SCREENING 1",
            -7,
            "TREATMENT",
            "2013-01-25",
            -8
          ],
          [
            118,
            "CDISCPILOT01",
            "QS",
            "01-701-1203",
            2004,
            "MMITM04",
            "SERIAL 7'S. 1 POINT FOR EACH CORRECT.",
            "MMSE",
            "ATTENTION AND CALCULATI",
            "5",
            "",
            "5",
            5,
            "",
            "",
            "",
            "",
            "",
            1,
            "SCREENING 1",
            -7,
            "TREATMENT",
            "2013-01-25",
            -8
          ],
          [
            119,
            "CDISCPILOT01",
            "QS",
            "01-701-1203",
            2005,
            "MMITM05",
            "ASK FOR THE 3 OBJECTS REPEATED ABOVE.",
            "MMSE",
            "RECALL",
            "0",
            "",
            "0",
            0,
            "",
            "",
            "",
            "",
            "",
            1,
            "SCREENING 1",
            -7,
            "TREATMENT",
            "2013-01-25",
            -8
          ],
          [
            120,
            "CDISCPILOT01",
            "QS",
            "01-701-1203",
            2006,
            "MMITM06",
            "NAME A PENCIL, AND WATCH (2 POINTS)",
            "MMSE",
            "LANGUAGE",
            "9",
            "",
            "9",
            9,
            "",
            "",
            "",
            "",
            "",
            1,
            "SCREENING 1",
            -7,
            "TREATMENT",
            "2013-01-25",
            -8
          ],
          [
            121,
            "CDISCPILOT01",
            "QS",
            "01-701-1211",
            2001,
            "MMITM01",
            "WHAT IS THE (YEAR) (SEASON) (DATE) ?",
            "MMSE",
            "ORIENTATION",
            "0",
            "",
            "0",
            0,
            "",
            "",
            "",
            "",
            "",
            1,
            "SCREENING 1",
            -7,
            "TREATMENT",
            "2012-10-30",
            -16
          ],
          [
            122,
            "CDISCPILOT01",
            "QS",
            "01-701-1211",
            2002,
            "MMITM02",
            "WHERE ARE WE: (STATE) (COUNTRY) (TOWN) ?",
            "MMSE",
            "ORIENTATION",
            "3",
            "",
            "3",
            3,
            "",
            "",
            "",
            "",
            "",
            1,
            "SCREENING 1",
            -7,
            "TREATMENT",
            "2012-10-30",
            -16
          ],
          [
            123,
            "CDISCPILOT01",
            "QS",
            "01-701-1211",
            2003,
            "MMITM03",
            "NAME 3 OBJECTS: 1 SECOND TO SAY EACH.",
            "MMSE",
            "REGISTRATION",
            "3",
            "",
            "3",
            3,
            "",
            "",
            "",
            "",
            "",
            1,
            "SCREENING 1",
            -7,
            "TREATMENT",
            "2012-10-30",
            -16
          ],
          [
            124,
            "CDISCPILOT01",
            "QS",
            "01-701-1211",
            2004,
            "MMITM04",
            "SERIAL 7'S. 1 POINT FOR EACH CORRECT.",
            "MMSE",
            "ATTENTION AND CALCULATI",
            "0",
            "",
            "0",
            0,
            "",
            "",
            "",
            "",
            "",
            1,
            "SCREENING 1",
            -7,
            "TREATMENT",
            "2012-10-30",
            -16
          ],
          [
            125,
            "CDISCPILOT01",
            "QS",
            "01-701-1211",
            2005,
            "MMITM05",
            "ASK FOR THE 3 OBJECTS REPEATED ABOVE.",
            "MMSE",
            "RECALL",
            "0",
            "",
            "0",
            0,
            "",
            "",
            "",
            "",
            "",
            1,
            "SCREENING 1",
            -7,
            "TREATMENT",
            "2012-10-30",
            -16
          ],
          [
            126,
            "CDISCPILOT01",
            "QS",
            "01-701-1211",
            2006,
            "MMITM06",
            "NAME A PENCIL, AND WATCH (2 POINTS)",
            "MMSE",
            "LANGUAGE",
            "6",
            "",
            "6",
            6,
            "",
            "",
            "",
            "",
            "",
            1,
            "SCREENING 1",
            -7,
            "TREATMENT",
            "2012-10-30",
            -16
          ],
          [
            127,
            "CDISCPILOT01",
            "QS",
            "01-701-1234",
            2001,
            "MMITM01",
            "WHAT IS THE (YEAR) (SEASON) (DATE) ?",
            "MMSE",
            "ORIENTATION",
            "3",
            "",
            "3",
            3,
            "",
            "",
            "",
            "",
            "",
            1,
            "SCREENING 1",
            -7,
            "TREATMENT",
            "2013-03-20",
            -10
          ],
          [
            128,
            "CDISCPILOT01",
            "QS",
            "01-701-1234",
            2002,
            "MMITM02",
            "WHERE ARE WE: (STATE) (COUNTRY) (TOWN) ?",
            "MMSE",
            "ORIENTATION",
            "3",
            "",
            "3",
            3,
            "",
            "",
            "",
            "",
            "",
            1,
            "SCREENING 1",
            -7,
            "TREATMENT",
            "2013-03-20",
            -10
          ],
          [
            129,
            "CDISCPILOT01",
            "QS",
            "01-701-1234",
            2003,
            "MMITM03",
            "NAME 3 OBJECTS: 1 SECOND TO SAY EACH.",
            "MMSE",
            "REGISTRATION",
            "3",
            "",
            "3",
            3,
            "",
            "",
            "",
            "",
            "",
            1,
            "SCREENING 1",
            -7,
            "TREATMENT",
            "2013-03-20",
            -10
          ],
          [
            130,
            "CDISCPILOT01",
            "QS",
            "01-701-1234",
            2004,
            "MMITM04",
            "SERIAL 7'S. 1 POINT FOR EACH CORRECT.",
            "MMSE",
            "ATTENTION AND CALCULATI",
            "3",
            "",
            "3",
            3,
            "",
            "",
            "",
            "",
            "",
            1,
            "SCREENING 1",
            -7,
            "TREATMENT",
            "2013-03-20",
            -10
          ],
          [
            131,
            "CDISCPILOT01",
            "QS",
            "01-701-1234",
            2005,
            "MMITM05",
            "ASK FOR THE 3 OBJECTS REPEATED ABOVE.",
            "MMSE",
            "RECALL",
            "1",
            "",
            "1",
            1,
            "",
            "",
            "",
            "",
            "",
            1,
            "SCREENING 1",
            -7,
            "TREATMENT",
            "2013-03-20",
            -10
          ],
          [
            132,
            "CDISCPILOT01",
            "QS",
            "01-701-1234",
            2006,
            "MMITM06",
            "NAME A PENCIL, AND WATCH (2 POINTS)",
            "MMSE",
            "LANGUAGE",
            "7",
            "",
            "7",
            7,
            "",
            "",
            "",
            "",
            "",
            1,
            "SCREENING 1",
            -7,
            "TREATMENT",
            "2013-03-20",
            -10
          ],
          [
            133,
            "CDISCPILOT01",
            "QS",
            "01-701-1239",
            2001,
            "MMITM01",
            "WHAT IS THE (YEAR) (SEASON) (DATE) ?",
            "MMSE",
            "ORIENTATION",
            "4",
            "",
            "4",
            4,
            "",
            "",
            "",
            "",
            "",
            1,
            "SCREENING 1",
            -7,
            "TREATMENT",
            "2013-12-28",
            -14
          ],
          [
            134,
            "CDISCPILOT01",
            "QS",
            "01-701-1239",
            2002,
            "MMITM02",
            "WHERE ARE WE: (STATE) (COUNTRY) (TOWN) ?",
            "MMSE",
            "ORIENTATION",
            "4",
            "",
            "4",
            4,
            "",
            "",
            "",
            "",
            "",
            1,
            "SCREENING 1",
            -7,
            "TREATMENT",
            "2013-12-28",
            -14
          ],
          [
            135,
            "CDISCPILOT01",
            "QS",
            "01-701-1239",
            2003,
            "MMITM03",
            "NAME 3 OBJECTS: 1 SECOND TO SAY EACH.",
            "MMSE",
            "REGISTRATION",
            "3",
            "",
            "3",
            3,
            "",
            "",
            "",
            "",
            "",
            1,
            "SCREENING 1",
            -7,
            "TREATMENT",
            "2013-12-28",
            -14
          ],
          [
            136,
            "CDISCPILOT01",
            "QS",
            "01-701-1239",
            2004,
            "MMITM04",
            "SERIAL 7'S. 1 POINT FOR EACH CORRECT.",
            "MMSE",
            "ATTENTION AND CALCULATI",
            "3",
            "",
            "3",
            3,
            "",
            "",
            "",
            "",
            "",
            1,
            "SCREENING 1",
            -7,
            "TREATMENT",
            "2013-12-28",
            -14
          ],
          [
            137,
            "CDISCPILOT01",
            "QS",
            "01-701-1239",
            2005,
            "MMITM05",
            "ASK FOR THE 3 OBJECTS REPEATED ABOVE.",
            "MMSE",
            "RECALL",
            "2",
            "",
            "2",
            2,
            "",
            "",
            "",
            "",
            "",
            1,
            "SCREENING 1",
            -7,
            "TREATMENT",
            "2013-12-28",
            -14
          ],
          [
            138,
            "CDISCPILOT01",
            "QS",
            "01-701-1239",
            2006,
            "MMITM06",
            "NAME A PENCIL, AND WATCH (2 POINTS)",
            "MMSE",
            "LANGUAGE",
            "7",
            "",
            "7",
            7,
            "",
            "",
            "",
            "",
            "",
            1,
            "SCREENING 1",
            -7,
            "TREATMENT",
            "2013-12-28",
            -14
          ],
          [
            139,
            "CDISCPILOT01",
            "QS",
            "01-701-1275",
            2001,
            "MMITM01",
            "WHAT IS THE (YEAR) (SEASON) (DATE) ?",
            "MMSE",
            "ORIENTATION",
            "5",
            "",
            "5",
            5,
            "",
            "",
            "",
            "",
            "",
            1,
            "SCREENING 1",
            -7,
            "TREATMENT",
            "2014-01-25",
            -13
          ],
          [
            140,
            "CDISCPILOT01",
            "QS",
            "01-701-1275",
            2002,
            "MMITM02",
            "WHERE ARE WE: (STATE) (COUNTRY) (TOWN) ?",
            "MMSE",
            "ORIENTATION",
            "5",
            "",
            "5",
            5,
            "",
            "",
            "",
            "",
            "",
            1,
            "SCREENING 1",
            -7,
            "TREATMENT",
            "2014-01-25",
            -13
          ],
          [
            141,
            "CDISCPILOT01",
            "QS",
            "01-701-1275",
            2003,
            "MMITM03",
            "NAME 3 OBJECTS: 1 SECOND TO SAY EACH.",
            "MMSE",
            "REGISTRATION",
            "3",
            "",
            "3",
            3,
            "",
            "",
            "",
            "",
            "",
            1,
            "SCREENING 1",
            -7,
            "TREATMENT",
            "2014-01-25",
            -13
          ],
          [
            142,
            "CDISCPILOT01",
            "QS",
            "01-701-1275",
            2004,
            "MMITM04",
            "SERIAL 7'S. 1 POINT FOR EACH CORRECT.",
            "MMSE",
            "ATTENTION AND CALCULATI",
            "2",
            "",
            "2",
            2,
            "",
            "",
            "",
            "",
            "",
            1,
            "SCREENING 1",
            -7,
            "TREATMENT",
            "2014-01-25",
            -13
          ],
          [
            143,
            "CDISCPILOT01",
            "QS",
            "01-701-1275",
            2005,
            "MMITM05",
            "ASK FOR THE 3 OBJECTS REPEATED ABOVE.",
            "MMSE",
            "RECALL",
            "1",
            "",
            "1",
            1,
            "",
            "",
            "",
            "",
            "",
            1,
            "SCREENING 1",
            -7,
            "TREATMENT",
            "2014-01-25",
            -13
          ],
          [
            144,
            "CDISCPILOT01",
            "QS",
            "01-701-1275",
            2006,
            "MMITM06",
            "NAME A PENCIL, AND WATCH (2 POINTS)",
            "MMSE",
            "LANGUAGE",
            "6",
            "",
            "6",
            6,
            "",
            "",
            "",
            "",
            "",
            1,
            "SCREENING 1",
            -7,
            "TREATMENT",
            "2014-01-25",
            -13
          ],
          [
            145,
            "CDISCPILOT01",
            "QS",
            "01-701-1287",
            2001,
            "MMITM01",
            "WHAT IS THE (YEAR) (SEASON) (DATE) ?",
            "MMSE",
            "ORIENTATION",
            "5",
            "",
            "5",
            5,
            "",
            "",
            "",
            "",
            "",
            1,
            "SCREENING 1",
            -7,
            "TREATMENT",
            "2014-01-17",
            -8
          ],
          [
            146,
            "CDISCPILOT01",
            "QS",
            "01-701-1287",
            2002,
            "MMITM02",
            "WHERE ARE WE: (STATE) (COUNTRY) (TOWN) ?",
            "MMSE",
            "ORIENTATION",
            "5",
            "",
            "5",
            5,
            "",
            "",
            "",
            "",
            "",
            1,
            "SCREENING 1",
            -7,
            "TREATMENT",
            "2014-01-17",
            -8
          ],
          [
            147,
            "CDISCPILOT01",
            "QS",
            "01-701-1287",
            2003,
            "MMITM03",
            "NAME 3 OBJECTS: 1 SECOND TO SAY EACH.",
            "MMSE",
            "REGISTRATION",
            "3",
            "",
            "3",
            3,
            "",
            "",
            "",
            "",
            "",
            1,
            "SCREENING 1",
            -7,
            "TREATMENT",
            "2014-01-17",
            -8
          ],
          [
            148,
            "CDISCPILOT01",
            "QS",
            "01-701-1287",
            2004,
            "MMITM04",
            "SERIAL 7'S. 1 POINT FOR EACH CORRECT.",
            "MMSE",
            "ATTENTION AND CALCULATI",
            "2",
            "",
            "2",
            2,
            "",
            "",
            "",
            "",
            "",
            1,
            "SCREENING 1",
            -7,
            "TREATMENT",
            "2014-01-17",
            -8
          ],
          [
            149,
            "CDISCPILOT01",
            "QS",
            "01-701-1287",
            2005,
            "MMITM05",
            "ASK FOR THE 3 OBJECTS REPEATED ABOVE.",
            "MMSE",
            "RECALL",
            "0",
            "",
            "0",
            0,
            "",
            "",
            "",
            "",
            "",
            1,
            "SCREENING 1",
            -7,
            "TREATMENT",
            "2014-01-17",
            -8
          ],
          [
            150,
            "CDISCPILOT01",
            "QS",
            "01-701-1287",
            2006,
            "MMITM06",
            "NAME A PENCIL, AND WATCH (2 POINTS)",
            "MMSE",
            "LANGUAGE",
            "7",
            "",
            "7",
            7,
            "",
            "",
            "",
            "",
            "",
            1,
            "SCREENING 1",
            -7,
            "TREATMENT",
            "2014-01-17",
            -8
          ],
          [
            151,
            "CDISCPILOT01",
            "QS",
            "01-701-1294",
            2001,
            "MMITM01",
            "WHAT IS THE (YEAR) (SEASON) (DATE) ?",
            "MMSE",
            "ORIENTATION",
            "5",
            "",
            "5",
            5,
            "",
            "",
            "",
            "",
            "",
            1,
            "SCREENING 1",
            -7,
            "TREATMENT",
            "2013-03-17",
            -7
          ],
          [
            152,
            "CDISCPILOT01",
            "QS",
            "01-701-1294",
            2002,
            "MMITM02",
            "WHERE ARE WE: (STATE) (COUNTRY) (TOWN) ?",
            "MMSE",
            "ORIENTATION",
            "3",
            "",
            "3",
            3,
            "",
            "",
            "",
            "",
            "",
            1,
            "SCREENING 1",
            -7,
            "TREATMENT",
            "2013-03-17",
            -7
          ],
          [
            153,
            "CDISCPILOT01",
            "QS",
            "01-701-1294",
            2003,
            "MMITM03",
            "NAME 3 OBJECTS: 1 SECOND TO SAY EACH.",
            "MMSE",
            "REGISTRATION",
            "3",
            "",
            "3",
            3,
            "",
            "",
            "",
            "",
            "",
            1,
            "SCREENING 1",
            -7,
            "TREATMENT",
            "2013-03-17",
            -7
          ],
          [
            154,
            "CDISCPILOT01",
            "QS",
            "01-701-1294",
            2004,
            "MMITM04",
            "SERIAL 7'S. 1 POINT FOR EACH CORRECT.",
            "MMSE",
            "ATTENTION AND CALCULATI",
            "2",
            "",
            "2",
            2,
            "",
            "",
            "",
            "",
            "",
            1,
            "SCREENING 1",
            -7,
            "TREATMENT",
            "2013-03-17",
            -7
          ],
          [
            155,
            "CDISCPILOT01",
            "QS",
            "01-701-1294",
            2005,
            "MMITM05",
            "ASK FOR THE 3 OBJECTS REPEATED ABOVE.",
            "MMSE",
            "RECALL",
            "1",
            "",
            "1",
            1,
            "",
            "",
            "",
            "",
            "",
            1,
            "SCREENING 1",
            -7,
            "TREATMENT",
            "2013-03-17",
            -7
          ],
          [
            156,
            "CDISCPILOT01",
            "QS",
            "01-701-1294",
            2006,
            "MMITM06",
            "NAME A PENCIL, AND WATCH (2 POINTS)",
            "MMSE",
            "LANGUAGE",
            "9",
            "",
            "9",
            9,
            "",
            "",
            "",
            "",
            "",
            1,
            "SCREENING 1",
            -7,
            "TREATMENT",
            "2013-03-17",
            -7
          ],
          [
            157,
            "CDISCPILOT01",
            "QS",
            "01-701-1302",
            2001,
            "MMITM01",
            "WHAT IS THE (YEAR) (SEASON) (DATE) ?",
            "MMSE",
            "ORIENTATION",
            "4",
            "",
            "4",
            4,
            "",
            "",
            "",
            "",
            "",
            1,
            "SCREENING 1",
            -7,
            "TREATMENT",
            "2013-08-20",
            -9
          ],
          [
            158,
            "CDISCPILOT01",
            "QS",
            "01-701-1302",
            2002,
            "MMITM02",
            "WHERE ARE WE: (STATE) (COUNTRY) (TOWN) ?",
            "MMSE",
            "ORIENTATION",
            "3",
            "",
            "3",
            3,
            "",
            "",
            "",
            "",
            "",
            1,
            "SCREENING 1",
            -7,
            "TREATMENT",
            "2013-08-20",
            -9
          ],
          [
            159,
            "CDISCPILOT01",
            "QS",
            "01-701-1302",
            2003,
            "MMITM03",
            "NAME 3 OBJECTS: 1 SECOND TO SAY EACH.",
            "MMSE",
            "REGISTRATION",
            "3",
            "",
            "3",
            3,
            "",
            "",
            "",
            "",
            "",
            1,
            "SCREENING 1",
            -7,
            "TREATMENT",
            "2013-08-20",
            -9
          ],
          [
            160,
            "CDISCPILOT01",
            "QS",
            "01-701-1302",
            2004,
            "MMITM04",
            "SERIAL 7'S. 1 POINT FOR EACH CORRECT.",
            "MMSE",
            "ATTENTION AND CALCULATI",
            "4",
            "",
            "4",
            4,
            "",
            "",
            "",
            "",
            "",
            1,
            "SCREENING 1",
            -7,
            "TREATMENT",
            "2013-08-20",
            -9
          ],
          [
            161,
            "CDISCPILOT01",
            "QS",
            "01-701-1302",
            2005,
            "MMITM05",
            "ASK FOR THE 3 OBJECTS REPEATED ABOVE.",
            "MMSE",
            "RECALL",
            "1",
            "",
            "1",
            1,
            "",
            "",
            "",
            "",
            "",
            1,
            "SCREENING 1",
            -7,
            "TREATMENT",
            "2013-08-20",
            -9
          ],
          [
            162,
            "CDISCPILOT01",
            "QS",
            "01-701-1302",
            2006,
            "MMITM06",
            "NAME A PENCIL, AND WATCH (2 POINTS)",
            "MMSE",
            "LANGUAGE",
            "8",
            "",
            "8",
            8,
            "",
            "",
            "",
            "",
            "",
            1,
            "SCREENING 1",
            -7,
            "TREATMENT",
            "2013-08-20",
            -9
          ],
          [
            163,
            "CDISCPILOT01",
            "QS",
            "01-701-1317",
            2001,
            "MMITM01",
            "WHAT IS THE (YEAR) (SEASON) (DATE) ?",
            "MMSE",
            "ORIENTATION",
            "4",
            "",
            "4",
            4,
            "",
            "",
            "",
            "",
            "",
            1,
            "SCREENING 1",
            -7,
            "TREATMENT",
            "2014-05-10",
            -12
          ],
          [
            164,
            "CDISCPILOT01",
            "QS",
            "01-701-1317",
            2002,
            "MMITM02",
            "WHERE ARE WE: (STATE) (COUNTRY) (TOWN) ?",
            "MMSE",
            "ORIENTATION",
            "3",
            "",
            "3",
            3,
            "",
            "",
            "",
            "",
            "",
            1,
            "SCREENING 1",
            -7,
            "TREATMENT",
            "2014-05-10",
            -12
          ],
          [
            165,
            "CDISCPILOT01",
            "QS",
            "01-701-1317",
            2003,
            "MMITM03",
            "NAME 3 OBJECTS: 1 SECOND TO SAY EACH.",
            "MMSE",
            "REGISTRATION",
            "3",
            "",
            "3",
            3,
            "",
            "",
            "",
            "",
            "",
            1,
            "SCREENING 1",
            -7,
            "TREATMENT",
            "2014-05-10",
            -12
          ],
          [
            166,
            "CDISCPILOT01",
            "QS",
            "01-701-1317",
            2004,
            "MMITM04",
            "SERIAL 7'S. 1 POINT FOR EACH CORRECT.",
            "MMSE",
            "ATTENTION AND CALCULATI",
            "2",
            "",
            "2",
            2,
            "",
            "",
            "",
            "",
            "",
            1,
            "SCREENING 1",
            -7,
            "TREATMENT",
            "2014-05-10",
            -12
          ],
          [
            167,
            "CDISCPILOT01",
            "QS",
            "01-701-1317",
            2005,
            "MMITM05",
            "ASK FOR THE 3 OBJECTS REPEATED ABOVE.",
            "MMSE",
            "RECALL",
            "0",
            "",
            "0",
            0,
            "",
            "",
            "",
            "",
            "",
            1,
            "SCREENING 1",
            -7,
            "TREATMENT",
            "2014-05-10",
            -12
          ],
          [
            168,
            "CDISCPILOT01",
            "QS",
            "01-701-1317",
            2006,
            "MMITM06",
            "NAME A PENCIL, AND WATCH (2 POINTS)",
            "MMSE",
            "LANGUAGE",
            "8",
            "",
            "8",
            8,
            "",
            "",
            "",
            "",
            "",
            1,
            "SCREENING 1",
            -7,
            "TREATMENT",
            "2014-05-10",
            -12
          ],
          [
            169,
            "CDISCPILOT01",
            "QS",
            "01-701-1324",
            2001,
            "MMITM01",
            "WHAT IS THE (YEAR) (SEASON) (DATE) ?",
            "MMSE",
            "ORIENTATION",
            "3",
            "",
            "3",
            3,
            "",
            "",
            "",
            "",
            "",
            1,
            "SCREENING 1",
            -7,
            "TREATMENT",
            "2012-09-16",
            -16
          ],
          [
            170,
            "CDISCPILOT01",
            "QS",
            "01-701-1324",
            2002,
            "MMITM02",
            "WHERE ARE WE: (STATE) (COUNTRY) (TOWN) ?",
            "MMSE",
            "ORIENTATION",
            "3",
            "",
            "3",
            3,
            "",
            "",
            "",
            "",
            "",
            1,
            "SCREENING 1",
            -7,
            "TREATMENT",
            "2012-09-16",
            -16
          ],
          [
            171,
            "CDISCPILOT01",
            "QS",
            "01-701-1324",
            2003,
            "MMITM03",
            "NAME 3 OBJECTS: 1 SECOND TO SAY EACH.",
            "MMSE",
            "REGISTRATION",
            "3",
            "",
            "3",
            3,
            "",
            "",
            "",
            "",
            "",
            1,
            "SCREENING 1",
            -7,
            "TREATMENT",
            "2012-09-16",
            -16
          ],
          [
            172,
            "CDISCPILOT01",
            "QS",
            "01-701-1324",
            2004,
            "MMITM04",
            "SERIAL 7'S. 1 POINT FOR EACH CORRECT.",
            "MMSE",
            "ATTENTION AND CALCULATI",
            "5",
            "",
            "5",
            5,
            "",
            "",
            "",
            "",
            "",
            1,
            "SCREENING 1",
            -7,
            "TREATMENT",
            "2012-09-16",
            -16
          ],
          [
            173,
            "CDISCPILOT01",
            "QS",
            "01-701-1324",
            2005,
            "MMITM05",
            "ASK FOR THE 3 OBJECTS REPEATED ABOVE.",
            "MMSE",
            "RECALL",
            "0",
            "",
            "0",
            0,
            "",
            "",
            "",
            "",
            "",
            1,
            "SCREENING 1",
            -7,
            "TREATMENT",
            "2012-09-16",
            -16
          ],
          [
            174,
            "CDISCPILOT01",
            "QS",
            "01-701-1324",
            2006,
            "MMITM06",
            "NAME A PENCIL, AND WATCH (2 POINTS)",
            "MMSE",
            "LANGUAGE",
            "9",
            "",
            "9",
            9,
            "",
            "",
            "",
            "",
            "",
            1,
            "SCREENING 1",
            -7,
            "TREATMENT",
            "2012-09-16",
            -16
          ],
          [
            175,
            "CDISCPILOT01",
            "QS",
            "01-701-1341",
            2001,
            "MMITM01",
            "WHAT IS THE (YEAR) (SEASON) (DATE) ?",
            "MMSE",
            "ORIENTATION",
            "4",
            "",
            "4",
            4,
            "",
            "",
            "",
            "",
            "",
            1,
            "SCREENING 1",
            -7,
            "TREATMENT",
            "2012-12-22",
            -14
          ],
          [
            176,
            "CDISCPILOT01",
            "QS",
            "01-701-1341",
            2002,
            "MMITM02",
            "WHERE ARE WE: (STATE) (COUNTRY) (TOWN) ?",
            "MMSE",
            "ORIENTATION",
            "5",
            "",
            "5",
            5,
            "",
            "",
            "",
            "",
            "",
            1,
            "SCREENING 1",
            -7,
            "TREATMENT",
            "2012-12-22",
            -14
          ],
          [
            177,
            "CDISCPILOT01",
            "QS",
            "01-701-1341",
            2003,
            "MMITM03",
            "NAME 3 OBJECTS: 1 SECOND TO SAY EACH.",
            "MMSE",
            "REGISTRATION",
            "2",
            "",
            "2",
            2,
            "",
            "",
            "",
            "",
            "",
            1,
            "SCREENING 1",
            -7,
            "TREATMENT",
            "2012-12-22",
            -14
          ],
          [
            178,
            "CDISCPILOT01",
            "QS",
            "01-701-1341",
            2004,
            "MMITM04",
            "SERIAL 7'S. 1 POINT FOR EACH CORRECT.",
            "MMSE",
            "ATTENTION AND CALCULATI",
            "2",
            "",
            "2",
            2,
            "",
            "",
            "",
            "",
            "",
            1,
            "SCREENING 1",
            -7,
            "TREATMENT",
            "2012-12-22",
            -14
          ],
          [
            179,
            "CDISCPILOT01",
            "QS",
            "01-701-1341",
            2005,
            "MMITM05",
            "ASK FOR THE 3 OBJECTS REPEATED ABOVE.",
            "MMSE",
            "RECALL",
            "2",
            "",
            "2",
            2,
            "",
            "",
            "",
            "",
            "",
            1,
            "SCREENING 1",
            -7,
            "TREATMENT",
            "2012-12-22",
            -14
          ],
          [
            180,
            "CDISCPILOT01",
            "QS",
            "01-701-1341",
            2006,
            "MMITM06",
            "NAME A PENCIL, AND WATCH (2 POINTS)",
            "MMSE",
            "LANGUAGE",
            "8",
            "",
            "8",
            8,
            "",
            "",
            "",
            "",
            "",
            1,
            "SCREENING 1",
            -7,
            "TREATMENT",
            "2012-12-22",
            -14
          ],
          [
            181,
            "CDISCPILOT01",
            "QS",
            "01-701-1345",
            2001,
            "MMITM01",
            "WHAT IS THE (YEAR) (SEASON) (DATE) ?",
            "MMSE",
            "ORIENTATION",
            "2",
            "",
            "2",
            2,
            "",
            "",
            "",
            "",
            "",
            1,
            "SCREENING 1",
            -7,
            "TREATMENT",
            "2013-10-01",
            -7
          ],
          [
            182,
            "CDISCPILOT01",
            "QS",
            "01-701-1345",
            2002,
            "MMITM02",
            "WHERE ARE WE: (STATE) (COUNTRY) (TOWN) ?",
            "MMSE",
            "ORIENTATION",
            "3",
            "",
            "3",
            3,
            "",
            "",
            "",
            "",
            "",
            1,
            "SCREENING 1",
            -7,
            "TREATMENT",
            "2013-10-01",
            -7
          ],
          [
            183,
            "CDISCPILOT01",
            "QS",
            "01-701-1345",
            2003,
            "MMITM03",
            "NAME 3 OBJECTS: 1 SECOND TO SAY EACH.",
            "MMSE",
            "REGISTRATION",
            "3",
            "",
            "3",
            3,
            "",
            "",
            "",
            "",
            "",
            1,
            "SCREENING 1",
            -7,
            "TREATMENT",
            "2013-10-01",
            -7
          ],
          [
            184,
            "CDISCPILOT01",
            "QS",
            "01-701-1345",
            2004,
            "MMITM04",
            "SERIAL 7'S. 1 POINT FOR EACH CORRECT.",
            "MMSE",
            "ATTENTION AND CALCULATI",
            "5",
            "",
            "5",
            5,
            "",
            "",
            "",
            "",
            "",
            1,
            "SCREENING 1",
            -7,
            "TREATMENT",
            "2013-10-01",
            -7
          ],
          [
            185,
            "CDISCPILOT01",
            "QS",
            "01-701-1345",
            2005,
            "MMITM05",
            "ASK FOR THE 3 OBJECTS REPEATED ABOVE.",
            "MMSE",
            "RECALL",
            "2",
            "",
            "2",
            2,
            "",
            "",
            "",
            "",
            "",
            1,
            "SCREENING 1",
            -7,
            "TREATMENT",
            "2013-10-01",
            -7
          ],
          [
            186,
            "CDISCPILOT01",
            "QS",
            "01-701-1345",
            2006,
            "MMITM06",
            "NAME A PENCIL, AND WATCH (2 POINTS)",
            "MMSE",
            "LANGUAGE",
            "8",
            "",
            "8",
            8,
            "",
            "",
            "",
            "",
            "",
            1,
            "SCREENING 1",
            -7,
            "TREATMENT",
            "2013-10-01",
            -7
          ],
          [
            187,
            "CDISCPILOT01",
            "QS",
            "01-701-1360",
            2001,
            "MMITM01",
            "WHAT IS THE (YEAR) (SEASON) (DATE) ?",
            "MMSE",
            "ORIENTATION",
            "5",
            "",
            "5",
            5,
            "",
            "",
            "",
            "",
            "",
            1,
            "SCREENING 1",
            -7,
            "TREATMENT",
            "2013-07-24",
            -7
          ],
          [
            188,
            "CDISCPILOT01",
            "QS",
            "01-701-1360",
            2002,
            "MMITM02",
            "WHERE ARE WE: (STATE) (COUNTRY) (TOWN) ?",
            "MMSE",
            "ORIENTATION",
            "3",
            "",
            "3",
            3,
            "",
            "",
            "",
            "",
            "",
            1,
            "SCREENING 1",
            -7,
            "TREATMENT",
            "2013-07-24",
            -7
          ],
          [
            189,
            "CDISCPILOT01",
            "QS",
            "01-701-1360",
            2003,
            "MMITM03",
            "NAME 3 OBJECTS: 1 SECOND TO SAY EACH.",
            "MMSE",
            "REGISTRATION",
            "3",
            "",
            "3",
            3,
            "",
            "",
            "",
            "",
            "",
            1,
            "SCREENING 1",
            -7,
            "TREATMENT",
            "2013-07-24",
            -7
          ],
          [
            190,
            "CDISCPILOT01",
            "QS",
            "01-701-1360",
            2004,
            "MMITM04",
            "SERIAL 7'S. 1 POINT FOR EACH CORRECT.",
            "MMSE",
            "ATTENTION AND CALCULATI",
            "4",
            "",
            "4",
            4,
            "",
            "",
            "",
            "",
            "",
            1,
            "SCREENING 1",
            -7,
            "TREATMENT",
            "2013-07-24",
            -7
          ],
          [
            191,
            "CDISCPILOT01",
            "QS",
            "01-701-1360",
            2005,
            "MMITM05",
            "ASK FOR THE 3 OBJECTS REPEATED ABOVE.",
            "MMSE",
            "RECALL",
            "1",
            "",
            "1",
            1,
            "",
            "",
            "",
            "",
            "",
            1,
            "SCREENING 1",
            -7,
            "TREATMENT",
            "2013-07-24",
            -7
          ],
          [
            192,
            "CDISCPILOT01",
            "QS",
            "01-701-1360",
            2006,
            "MMITM06",
            "NAME A PENCIL, AND WATCH (2 POINTS)",
            "MMSE",
            "LANGUAGE",
            "7",
            "",
            "7",
            7,
            "",
            "",
            "",
            "",
            "",
            1,
            "SCREENING 1",
            -7,
            "TREATMENT",
            "2013-07-24",
            -7
          ],
          [
            193,
            "CDISCPILOT01",
            "QS",
            "01-701-1363",
            2001,
            "MMITM01",
            "WHAT IS THE (YEAR) (SEASON) (DATE) ?",
            "MMSE",
            "ORIENTATION",
            "3",
            "",
            "3",
            3,
            "",
            "",
            "",
            "",
            "",
            1,
            "SCREENING 1",
            -7,
            "TREATMENT",
            "2013-05-20",
            -10
          ],
          [
            194,
            "CDISCPILOT01",
            "QS",
            "01-701-1363",
            2002,
            "MMITM02",
            "WHERE ARE WE: (STATE) (COUNTRY) (TOWN) ?",
            "MMSE",
            "ORIENTATION",
            "5",
            "",
            "5",
            5,
            "",
            "",
            "",
            "",
            "",
            1,
            "SCREENING 1",
            -7,
            "TREATMENT",
            "2013-05-20",
            -10
          ],
          [
            195,
            "CDISCPILOT01",
            "QS",
            "01-701-1363",
            2003,
            "MMITM03",
            "NAME 3 OBJECTS: 1 SECOND TO SAY EACH.",
            "MMSE",
            "REGISTRATION",
            "3",
            "",
            "3",
            3,
            "",
            "",
            "",
            "",
            "",
            1,
            "SCREENING 1",
            -7,
            "TREATMENT",
            "2013-05-20",
            -10
          ],
          [
            196,
            "CDISCPILOT01",
            "QS",
            "01-701-1363",
            2004,
            "MMITM04",
            "SERIAL 7'S. 1 POINT FOR EACH CORRECT.",
            "MMSE",
            "ATTENTION AND CALCULATI",
            "4",
            "",
            "4",
            4,
            "",
            "",
            "",
            "",
            "",
            1,
            "SCREENING 1",
            -7,
            "TREATMENT",
            "2013-05-20",
            -10
          ],
          [
            197,
            "CDISCPILOT01",
            "QS",
            "01-701-1363",
            2005,
            "MMITM05",
            "ASK FOR THE 3 OBJECTS REPEATED ABOVE.",
            "MMSE",
            "RECALL",
            "0",
            "",
            "0",
            0,
            "",
            "",
            "",
            "",
            "",
            1,
            "SCREENING 1",
            -7,
            "TREATMENT",
            "2013-05-20",
            -10
          ],
          [
            198,
            "CDISCPILOT01",
            "QS",
            "01-701-1363",
            2006,
            "MMITM06",
            "NAME A PENCIL, AND WATCH (2 POINTS)",
            "MMSE",
            "LANGUAGE",
            "7",
            "",
            "7",
            7,
            "",
            "",
            "",
            "",
            "",
            1,
            "SCREENING 1",
            -7,
            "TREATMENT",
            "2013-05-20",
            -10
          ],
          [
            199,
            "CDISCPILOT01",
            "QS",
            "01-701-1383",
            2001,
            "MMITM01",
            "WHAT IS THE (YEAR) (SEASON) (DATE) ?",
            "MMSE",
            "ORIENTATION",
            "1",
            "",
            "1",
            1,
            "",
            "",
            "",
            "",
            "",
            1,
            "SCREENING 1",
            -7,
            "TREATMENT",
            "2013-01-22",
            -13
          ],
          [
            200,
            "CDISCPILOT01",
            "QS",
            "01-701-1383",
            2002,
            "MMITM02",
            "WHERE ARE WE: (STATE) (COUNTRY) (TOWN) ?",
            "MMSE",
            "ORIENTATION",
            "5",
            "",
            "5",
            5,
            "",
            "",
            "",
            "",
            "",
            1,
            "SCREENING 1",
            -7,
            "TREATMENT",
            "2013-01-22",
            -13
          ],
          [
            201,
            "CDISCPILOT01",
            "QS",
            "01-701-1383",
            2003,
            "MMITM03",
            "NAME 3 OBJECTS: 1 SECOND TO SAY EACH.",
            "MMSE",
            "REGISTRATION",
            "3",
            "",
            "3",
            3,
            "",
            "",
            "",
            "",
            "",
            1,
            "SCREENING 1",
            -7,
            "TREATMENT",
            "2013-01-22",
            -13
          ],
          [
            202,
            "CDISCPILOT01",
            "QS",
            "01-701-1383",
            2004,
            "MMITM04",
            "SERIAL 7'S. 1 POINT FOR EACH CORRECT.",
            "MMSE",
            "ATTENTION AND CALCULATI",
            "5",
            "",
            "5",
            5,
            "",
            "",
            "",
            "",
            "",
            1,
            "SCREENING 1",
            -7,
            "TREATMENT",
            "2013-01-22",
            -13
          ],
          [
            203,
            "CDISCPILOT01",
            "QS",
            "01-701-1383",
            2005,
            "MMITM05",
            "ASK FOR THE 3 OBJECTS REPEATED ABOVE.",
            "MMSE",
            "RECALL",
            "0",
            "",
            "0",
            0,
            "",
            "",
            "",
            "",
            "",
            1,
            "SCREENING 1",
            -7,
            "TREATMENT",
            "2013-01-22",
            -13
          ],
          [
            204,
            "CDISCPILOT01",
            "QS",
            "01-701-1383",
            2006,
            "MMITM06",
            "NAME A PENCIL, AND WATCH (2 POINTS)",
            "MMSE",
            "LANGUAGE",
            "8",
            "",
            "8",
            8,
            "",
            "",
            "",
            "",
            "",
            1,
            "SCREENING 1",
            -7,
            "TREATMENT",
            "2013-01-22",
            -13
          ],
          [
            205,
            "CDISCPILOT01",
            "QS",
            "01-701-1387",
            2001,
            "MMITM01",
            "WHAT IS THE (YEAR) (SEASON) (DATE) ?",
            "MMSE",
            "ORIENTATION",
            "0",
            "",
            "0",
            0,
            "",
            "",
            "",
            "",
            "",
            1,
            "SCREENING 1",
            -7,
            "TREATMENT",
            "2014-02-23",
            -17
          ],
          [
            206,
            "CDISCPILOT01",
            "QS",
            "01-701-1387",
            2002,
            "MMITM02",
            "WHERE ARE WE: (STATE) (COUNTRY) (TOWN) ?",
            "MMSE",
            "ORIENTATION",
            "0",
            "",
            "0",
            0,
            "",
            "",
            "",
            "",
            "",
            1,
            "SCREENING 1",
            -7,
            "TREATMENT",
            "2014-02-23",
            -17
          ],
          [
            207,
            "CDISCPILOT01",
            "QS",
            "01-701-1387",
            2003,
            "MMITM03",
            "NAME 3 OBJECTS: 1 SECOND TO SAY EACH.",
            "MMSE",
            "REGISTRATION",
            "3",
            "",
            "3",
            3,
            "",
            "",
            "",
            "",
            "",
            1,
            "SCREENING 1",
            -7,
            "TREATMENT",
            "2014-02-23",
            -17
          ],
          [
            208,
            "CDISCPILOT01",
            "QS",
            "01-701-1387",
            2004,
            "MMITM04",
            "SERIAL 7'S. 1 POINT FOR EACH CORRECT.",
            "MMSE",
            "ATTENTION AND CALCULATI",
            "4",
            "",
            "4",
            4,
            "",
            "",
            "",
            "",
            "",
            1,
            "SCREENING 1",
            -7,
            "TREATMENT",
            "2014-02-23",
            -17
          ],
          [
            209,
            "CDISCPILOT01",
            "QS",
            "01-701-1387",
            2005,
            "MMITM05",
            "ASK FOR THE 3 OBJECTS REPEATED ABOVE.",
            "MMSE",
            "RECALL",
            "0",
            "",
            "0",
            0,
            "",
            "",
            "",
            "",
            "",
            1,
            "SCREENING 1",
            -7,
            "TREATMENT",
            "2014-02-23",
            -17
          ],
          [
            210,
            "CDISCPILOT01",
            "QS",
            "01-701-1387",
            2006,
            "MMITM06",
            "NAME A PENCIL, AND WATCH (2 POINTS)",
            "MMSE",
            "LANGUAGE",
            "4",
            "",
            "4",
            4,
            "",
            "",
            "",
            "",
            "",
            1,
            "SCREENING 1",
            -7,
            "TREATMENT",
            "2014-02-23",
            -17
          ],
          [
            211,
            "CDISCPILOT01",
            "QS",
            "01-701-1392",
            2001,
            "MMITM01",
            "WHAT IS THE (YEAR) (SEASON) (DATE) ?",
            "MMSE",
            "ORIENTATION",
            "2",
            "",
            "2",
            2,
            "",
            "",
            "",
            "",
            "",
            1,
            "SCREENING 1",
            -7,
            "TREATMENT",
            "2012-10-17",
            -11
          ],
          [
            212,
            "CDISCPILOT01",
            "QS",
            "01-701-1392",
            2002,
            "MMITM02",
            "WHERE ARE WE: (STATE) (COUNTRY) (TOWN) ?",
            "MMSE",
            "ORIENTATION",
            "5",
            "",
            "5",
            5,
            "",
            "",
            "",
            "",
            "",
            1,
            "SCREENING 1",
            -7,
            "TREATMENT",
            "2012-10-17",
            -11
          ],
          [
            213,
            "CDISCPILOT01",
            "QS",
            "01-701-1392",
            2003,
            "MMITM03",
            "NAME 3 OBJECTS: 1 SECOND TO SAY EACH.",
            "MMSE",
            "REGISTRATION",
            "3",
            "",
            "3",
            3,
            "",
            "",
            "",
            "",
            "",
            1,
            "SCREENING 1",
            -7,
            "TREATMENT",
            "2012-10-17",
            -11
          ],
          [
            214,
            "CDISCPILOT01",
            "QS",
            "01-701-1392",
            2004,
            "MMITM04",
            "SERIAL 7'S. 1 POINT FOR EACH CORRECT.",
            "MMSE",
            "ATTENTION AND CALCULATI",
            "5",
            "",
            "5",
            5,
            "",
            "",
            "",
            "",
            "",
            1,
            "SCREENING 1",
            -7,
            "TREATMENT",
            "2012-10-17",
            -11
          ],
          [
            215,
            "CDISCPILOT01",
            "QS",
            "01-701-1392",
            2005,
            "MMITM05",
            "ASK FOR THE 3 OBJECTS REPEATED ABOVE.",
            "MMSE",
            "RECALL",
            "0",
            "",
            "0",
            0,
            "",
            "",
            "",
            "",
            "",
            1,
            "SCREENING 1",
            -7,
            "TREATMENT",
            "2012-10-17",
            -11
          ],
          [
            216,
            "CDISCPILOT01",
            "QS",
            "01-701-1392",
            2006,
            "MMITM06",
            "NAME A PENCIL, AND WATCH (2 POINTS)",
            "MMSE",
            "LANGUAGE",
            "8",
            "",
            "8",
            8,
            "",
            "",
            "",
            "",
            "",
            1,
            "SCREENING 1",
            -7,
            "TREATMENT",
            "2012-10-17",
            -11
          ],
          [
            217,
            "CDISCPILOT01",
            "QS",
            "01-701-1415",
            2001,
            "MMITM01",
            "WHAT IS THE (YEAR) (SEASON) (DATE) ?",
            "MMSE",
            "ORIENTATION",
            "1",
            "",
            "1",
            1,
            "",
            "",
            "",
            "",
            "",
            1,
            "SCREENING 1",
            -7,
            "TREATMENT",
            "2013-09-15",
            -8
          ],
          [
            218,
            "CDISCPILOT01",
            "QS",
            "01-701-1415",
            2002,
            "MMITM02",
            "WHERE ARE WE: (STATE) (COUNTRY) (TOWN) ?",
            "MMSE",
            "ORIENTATION",
            "2",
            "",
            "2",
            2,
            "",
            "",
            "",
            "",
            "",
            1,
            "SCREENING 1",
            -7,
            "TREATMENT",
            "2013-09-15",
            -8
          ],
          [
            219,
            "CDISCPILOT01",
            "QS",
            "01-701-1415",
            2003,
            "MMITM03",
            "NAME 3 OBJECTS: 1 SECOND TO SAY EACH.",
            "MMSE",
            "REGISTRATION",
            "3",
            "",
            "3",
            3,
            "",
            "",
            "",
            "",
            "",
            1,
            "SCREENING 1",
            -7,
            "TREATMENT",
            "2013-09-15",
            -8
          ],
          [
            220,
            "CDISCPILOT01",
            "QS",
            "01-701-1415",
            2004,
            "MMITM04",
            "SERIAL 7'S. 1 POINT FOR EACH CORRECT.",
            "MMSE",
            "ATTENTION AND CALCULATI",
            "4",
            "",
            "4",
            4,
            "",
            "",
            "",
            "",
            "",
            1,
            "SCREENING 1",
            -7,
            "TREATMENT",
            "2013-09-15",
            -8
          ],
          [
            221,
            "CDISCPILOT01",
            "QS",
            "01-701-1415",
            2005,
            "MMITM05",
            "ASK FOR THE 3 OBJECTS REPEATED ABOVE.",
            "MMSE",
            "RECALL",
            "0",
            "",
            "0",
            0,
            "",
            "",
            "",
            "",
            "",
            1,
            "SCREENING 1",
            -7,
            "TREATMENT",
            "2013-09-15",
            -8
          ],
          [
            222,
            "CDISCPILOT01",
            "QS",
            "01-701-1415",
            2006,
            "MMITM06",
            "NAME A PENCIL, AND WATCH (2 POINTS)",
            "MMSE",
            "LANGUAGE",
            "8",
            "",
            "8",
            8,
            "",
            "",
            "",
            "",
            "",
            1,
            "SCREENING 1",
            -7,
            "TREATMENT",
            "2013-09-15",
            -8
          ],
          [
            223,
            "CDISCPILOT01",
            "QS",
            "01-701-1429",
            2001,
            "MMITM01",
            "WHAT IS THE (YEAR) (SEASON) (DATE) ?",
            "MMSE",
            "ORIENTATION",
            "2",
            "",
            "2",
            2,
            "",
            "",
            "",
            "",
            "",
            1,
            "SCREENING 1",
            -7,
            "TREATMENT",
            "2013-02-25",
            -22
          ],
          [
            224,
            "CDISCPILOT01",
            "QS",
            "01-701-1429",
            2002,
            "MMITM02",
            "WHERE ARE WE: (STATE) (COUNTRY) (TOWN) ?",
            "MMSE",
            "ORIENTATION",
            "0",
            "",
            "0",
            0,
            "",
            "",
            "",
            "",
            "",
            1,
            "SCREENING 1",
            -7,
            "TREATMENT",
            "2013-02-25",
            -22
          ],
          [
            225,
            "CDISCPILOT01",
            "QS",
            "01-701-1429",
            2003,
            "MMITM03",
            "NAME 3 OBJECTS: 1 SECOND TO SAY EACH.",
            "MMSE",
            "REGISTRATION",
            "3",
            "",
            "3",
            3,
            "",
            "",
            "",
            "",
            "",
            1,
            "SCREENING 1",
            -7,
            "TREATMENT",
            "2013-02-25",
            -22
          ],
          [
            226,
            "CDISCPILOT01",
            "QS",
            "01-701-1429",
            2004,
            "MMITM04",
            "SERIAL 7'S. 1 POINT FOR EACH CORRECT.",
            "MMSE",
            "ATTENTION AND CALCULATI",
            "4",
            "",
            "4",
            4,
            "",
            "",
            "",
            "",
            "",
            1,
            "SCREENING 1",
            -7,
            "TREATMENT",
            "2013-02-25",
            -22
          ],
          [
            227,
            "CDISCPILOT01",
            "QS",
            "01-701-1429",
            2005,
            "MMITM05",
            "ASK FOR THE 3 OBJECTS REPEATED ABOVE.",
            "MMSE",
            "RECALL",
            "0",
            "",
            "0",
            0,
            "",
            "",
            "",
            "",
            "",
            1,
            "SCREENING 1",
            -7,
            "TREATMENT",
            "2013-02-25",
            -22
          ],
          [
            228,
            "CDISCPILOT01",
            "QS",
            "01-701-1429",
            2006,
            "MMITM06",
            "NAME A PENCIL, AND WATCH (2 POINTS)",
            "MMSE",
            "LANGUAGE",
            "8",
            "",
            "8",
            8,
            "",
            "",
            "",
            "",
            "",
            1,
            "SCREENING 1",
            -7,
            "TREATMENT",
            "2013-02-25",
            -22
          ],
          [
            229,
            "CDISCPILOT01",
            "QS",
            "01-701-1440",
            2001,
            "MMITM01",
            "WHAT IS THE (YEAR) (SEASON) (DATE) ?",
            "MMSE",
            "ORIENTATION",
            "1",
            "",
            "1",
            1,
            "",
            "",
            "",
            "",
            "",
            1,
            "SCREENING 1",
            -7,
            "TREATMENT",
            "2013-07-24",
            -15
          ],
          [
            230,
            "CDISCPILOT01",
            "QS",
            "01-701-1440",
            2002,
            "MMITM02",
            "WHERE ARE WE: (STATE) (COUNTRY) (TOWN) ?",
            "MMSE",
            "ORIENTATION",
            "4",
            "",
            "4",
            4,
            "",
            "",
            "",
            "",
            "",
            1,
            "SCREENING 1",
            -7,
            "TREATMENT",
            "2013-07-24",
            -15
          ],
          [
            231,
            "CDISCPILOT01",
            "QS",
            "01-701-1440",
            2003,
            "MMITM03",
            "NAME 3 OBJECTS: 1 SECOND TO SAY EACH.",
            "MMSE",
            "REGISTRATION",
            "3",
            "",
            "3",
            3,
            "",
            "",
            "",
            "",
            "",
            1,
            "SCREENING 1",
            -7,
            "TREATMENT",
            "2013-07-24",
            -15
          ],
          [
            232,
            "CDISCPILOT01",
            "QS",
            "01-701-1440",
            2004,
            "MMITM04",
            "SERIAL 7'S. 1 POINT FOR EACH CORRECT.",
            "MMSE",
            "ATTENTION AND CALCULATI",
            "5",
            "",
            "5",
            5,
            "",
            "",
            "",
            "",
            "",
            1,
            "SCREENING 1",
            -7,
            "TREATMENT",
            "2013-07-24",
            -15
          ],
          [
            233,
            "CDISCPILOT01",
            "QS",
            "01-701-1440",
            2005,
            "MMITM05",
            "ASK FOR THE 3 OBJECTS REPEATED ABOVE.",
            "MMSE",
            "RECALL",
            "0",
            "",
            "0",
            0,
            "",
            "",
            "",
            "",
            "",
            1,
            "SCREENING 1",
            -7,
            "TREATMENT",
            "2013-07-24",
            -15
          ],
          [
            234,
            "CDISCPILOT01",
            "QS",
            "01-701-1440",
            2006,
            "MMITM06",
            "NAME A PENCIL, AND WATCH (2 POINTS)",
            "MMSE",
            "LANGUAGE",
            "9",
            "",
            "9",
            9,
            "",
            "",
            "",
            "",
            "",
            1,
            "SCREENING 1",
            -7,
            "TREATMENT",
            "2013-07-24",
            -15
          ],
          [
            235,
            "CDISCPILOT01",
            "QS",
            "01-701-1442",
            2001,
            "MMITM01",
            "WHAT IS THE (YEAR) (SEASON) (DATE) ?",
            "MMSE",
            "ORIENTATION",
            "1",
            "",
            "1",
            1,
            "",
            "",
            "",
            "",
            "",
            1,
            "SCREENING 1",
            -7,
            "TREATMENT",
            "2013-10-17",
            -9
          ],
          [
            236,
            "CDISCPILOT01",
            "QS",
            "01-701-1442",
            2002,
            "MMITM02",
            "WHERE ARE WE: (STATE) (COUNTRY) (TOWN) ?",
            "MMSE",
            "ORIENTATION",
            "3",
            "",
            "3",
            3,
            "",
            "",
            "",
            "",
            "",
            1,
            "SCREENING 1",
            -7,
            "TREATMENT",
            "2013-10-17",
            -9
          ],
          [
            237,
            "CDISCPILOT01",
            "QS",
            "01-701-1442",
            2003,
            "MMITM03",
            "NAME 3 OBJECTS: 1 SECOND TO SAY EACH.",
            "MMSE",
            "REGISTRATION",
            "2",
            "",
            "2",
            2,
            "",
            "",
            "",
            "",
            "",
            1,
            "SCREENING 1",
            -7,
            "TREATMENT",
            "2013-10-17",
            -9
          ],
          [
            238,
            "CDISCPILOT01",
            "QS",
            "01-701-1442",
            2004,
            "MMITM04",
            "SERIAL 7'S. 1 POINT FOR EACH CORRECT.",
            "MMSE",
            "ATTENTION AND CALCULATI",
            "2",
            "",
            "2",
            2,
            "",
            "",
            "",
            "",
            "",
            1,
            "SCREENING 1",
            -7,
            "TREATMENT",
            "2013-10-17",
            -9
          ],
          [
            239,
            "CDISCPILOT01",
            "QS",
            "01-701-1442",
            2005,
            "MMITM05",
            "ASK FOR THE 3 OBJECTS REPEATED ABOVE.",
            "MMSE",
            "RECALL",
            "1",
            "",
            "1",
            1,
            "",
            "",
            "",
            "",
            "",
            1,
            "SCREENING 1",
            -7,
            "TREATMENT",
            "2013-10-17",
            -9
          ],
          [
            240,
            "CDISCPILOT01",
            "QS",
            "01-701-1442",
            2006,
            "MMITM06",
            "NAME A PENCIL, AND WATCH (2 POINTS)",
            "MMSE",
            "LANGUAGE",
            "6",
            "",
            "6",
            6,
            "",
            "",
            "",
            "",
            "",
            1,
            "SCREENING 1",
            -7,
            "TREATMENT",
            "2013-10-17",
            -9
          ],
          [
            241,
            "CDISCPILOT01",
            "QS",
            "01-701-1444",
            2001,
            "MMITM01",
            "WHAT IS THE (YEAR) (SEASON) (DATE) ?",
            "MMSE",
            "ORIENTATION",
            "5",
            "",
            "5",
            5,
            "",
            "",
            "",
            "",
            "",
            1,
            "SCREENING 1",
            -7,
            "TREATMENT",
            "2012-12-31",
            -5
          ],
          [
            242,
            "CDISCPILOT01",
            "QS",
            "01-701-1444",
            2002,
            "MMITM02",
            "WHERE ARE WE: (STATE) (COUNTRY) (TOWN) ?",
            "MMSE",
            "ORIENTATION",
            "3",
            "",
            "3",
            3,
            "",
            "",
            "",
            "",
            "",
            1,
            "SCREENING 1",
            -7,
            "TREATMENT",
            "2012-12-31",
            -5
          ],
          [
            243,
            "CDISCPILOT01",
            "QS",
            "01-701-1444",
            2003,
            "MMITM03",
            "NAME 3 OBJECTS: 1 SECOND TO SAY EACH.",
            "MMSE",
            "REGISTRATION",
            "3",
            "",
            "3",
            3,
            "",
            "",
            "",
            "",
            "",
            1,
            "SCREENING 1",
            -7,
            "TREATMENT",
            "2012-12-31",
            -5
          ],
          [
            244,
            "CDISCPILOT01",
            "QS",
            "01-701-1444",
            2004,
            "MMITM04",
            "SERIAL 7'S. 1 POINT FOR EACH CORRECT.",
            "MMSE",
            "ATTENTION AND CALCULATI",
            "5",
            "",
            "5",
            5,
            "",
            "",
            "",
            "",
            "",
            1,
            "SCREENING 1",
            -7,
            "TREATMENT",
            "2012-12-31",
            -5
          ],
          [
            245,
            "CDISCPILOT01",
            "QS",
            "01-701-1444",
            2005,
            "MMITM05",
            "ASK FOR THE 3 OBJECTS REPEATED ABOVE.",
            "MMSE",
            "RECALL",
            "1",
            "",
            "1",
            1,
            "",
            "",
            "",
            "",
            "",
            1,
            "SCREENING 1",
            -7,
            "TREATMENT",
            "2012-12-31",
            -5
          ],
          [
            246,
            "CDISCPILOT01",
            "QS",
            "01-701-1444",
            2006,
            "MMITM06",
            "NAME A PENCIL, AND WATCH (2 POINTS)",
            "MMSE",
            "LANGUAGE",
            "6",
            "",
            "6",
            6,
            "",
            "",
            "",
            "",
            "",
            1,
            "SCREENING 1",
            -7,
            "TREATMENT",
            "2012-12-31",
            -5
          ],
          [
            247,
            "CDISCPILOT01",
            "QS",
            "01-702-1082",
            2001,
            "MMITM01",
            "WHAT IS THE (YEAR) (SEASON) (DATE) ?",
            "MMSE",
            "ORIENTATION",
            "3",
            "",
            "3",
            3,
            "",
            "",
            "",
            "",
            "",
            1,
            "SCREENING 1",
            -7,
            "TREATMENT",
            "2013-07-03",
            -23
          ],
          [
            248,
            "CDISCPILOT01",
            "QS",
            "01-702-1082",
            2002,
            "MMITM02",
            "WHERE ARE WE: (STATE) (COUNTRY) (TOWN) ?",
            "MMSE",
            "ORIENTATION",
            "5",
            "",
            "5",
            5,
            "",
            "",
            "",
            "",
            "",
            1,
            "SCREENING 1",
            -7,
            "TREATMENT",
            "2013-07-03",
            -23
          ],
          [
            249,
            "CDISCPILOT01",
            "QS",
            "01-702-1082",
            2003,
            "MMITM03",
            "NAME 3 OBJECTS: 1 SECOND TO SAY EACH.",
            "MMSE",
            "REGISTRATION",
            "3",
            "",
            "3",
            3,
            "",
            "",
            "",
            "",
            "",
            1,
            "SCREENING 1",
            -7,
            "TREATMENT",
            "2013-07-03",
            -23
          ],
          [
            250,
            "CDISCPILOT01",
            "QS",
            "01-702-1082",
            2004,
            "MMITM04",
            "SERIAL 7'S. 1 POINT FOR EACH CORRECT.",
            "MMSE",
            "ATTENTION AND CALCULATI",
            "4",
            "",
            "4",
            4,
            "",
            "",
            "",
            "",
            "",
            1,
            "SCREENING 1",
            -7,
            "TREATMENT",
            "2013-07-03",
            -23
          ],
          [
            251,
            "CDISCPILOT01",
            "QS",
            "01-702-1082",
            2005,
            "MMITM05",
            "ASK FOR THE 3 OBJECTS REPEATED ABOVE.",
            "MMSE",
            "RECALL",
            "1",
            "",
            "1",
            1,
            "",
            "",
            "",
            "",
            "",
            1,
            "SCREENING 1",
            -7,
            "TREATMENT",
            "2013-07-03",
            -23
          ],
          [
            252,
            "CDISCPILOT01",
            "QS",
            "01-702-1082",
            2006,
            "MMITM06",
            "NAME A PENCIL, AND WATCH (2 POINTS)",
            "MMSE",
            "LANGUAGE",
            "7",
            "",
            "7",
            7,
            "",
            "",
            "",
            "",
            "",
            1,
            "SCREENING 1",
            -7,
            "TREATMENT",
            "2013-07-03",
            -23
          ],
          [
            253,
            "CDISCPILOT01",
            "QS",
            "01-703-1042",
            2001,
            "MMITM01",
            "WHAT IS THE (YEAR) (SEASON) (DATE) ?",
            "MMSE",
            "ORIENTATION",
            "4",
            "",
            "4",
            4,
            "",
            "",
            "",
            "",
            "",
            1,
            "SCREENING 1",
            -7,
            "TREATMENT",
            "2013-02-23",
            -7
          ],
          [
            254,
            "CDISCPILOT01",
            "QS",
            "01-703-1042",
            2002,
            "MMITM02",
            "WHERE ARE WE: (STATE) (COUNTRY) (TOWN) ?",
            "MMSE",
            "ORIENTATION",
            "3",
            "",
            "3",
            3,
            "",
            "",
            "",
            "",
            "",
            1,
            "SCREENING 1",
            -7,
            "TREATMENT",
            "2013-02-23",
            -7
          ],
          [
            255,
            "CDISCPILOT01",
            "QS",
            "01-703-1042",
            2003,
            "MMITM03",
            "NAME 3 OBJECTS: 1 SECOND TO SAY EACH.",
            "MMSE",
            "REGISTRATION",
            "3",
            "",
            "3",
            3,
            "",
            "",
            "",
            "",
            "",
            1,
            "SCREENING 1",
            -7,
            "TREATMENT",
            "2013-02-23",
            -7
          ],
          [
            256,
            "CDISCPILOT01",
            "QS",
            "01-703-1042",
            2004,
            "MMITM04",
            "SERIAL 7'S. 1 POINT FOR EACH CORRECT.",
            "MMSE",
            "ATTENTION AND CALCULATI",
            "5",
            "",
            "5",
            5,
            "",
            "",
            "",
            "",
            "",
            1,
            "SCREENING 1",
            -7,
            "TREATMENT",
            "2013-02-23",
            -7
          ],
          [
            257,
            "CDISCPILOT01",
            "QS",
            "01-703-1042",
            2005,
            "MMITM05",
            "ASK FOR THE 3 OBJECTS REPEATED ABOVE.",
            "MMSE",
            "RECALL",
            "0",
            "",
            "0",
            0,
            "",
            "",
            "",
            "",
            "",
            1,
            "SCREENING 1",
            -7,
            "TREATMENT",
            "2013-02-23",
            -7
          ],
          [
            258,
            "CDISCPILOT01",
            "QS",
            "01-703-1042",
            2006,
            "MMITM06",
            "NAME A PENCIL, AND WATCH (2 POINTS)",
            "MMSE",
            "LANGUAGE",
            "8",
            "",
            "8",
            8,
            "",
            "",
            "",
            "",
            "",
            1,
            "SCREENING 1",
            -7,
            "TREATMENT",
            "2013-02-23",
            -7
          ],
          [
            259,
            "CDISCPILOT01",
            "QS",
            "01-703-1076",
            2001,
            "MMITM01",
            "WHAT IS THE (YEAR) (SEASON) (DATE) ?",
            "MMSE",
            "ORIENTATION",
            "4",
            "",
            "4",
            4,
            "",
            "",
            "",
            "",
            "",
            1,
            "SCREENING 1",
            -7,
            "TREATMENT",
            "2013-10-17",
            -8
          ],
          [
            260,
            "CDISCPILOT01",
            "QS",
            "01-703-1076",
            2002,
            "MMITM02",
            "WHERE ARE WE: (STATE) (COUNTRY) (TOWN) ?",
            "MMSE",
            "ORIENTATION",
            "5",
            "",
            "5",
            5,
            "",
            "",
            "",
            "",
            "",
            1,
            "SCREENING 1",
            -7,
            "TREATMENT",
            "2013-10-17",
            -8
          ],
          [
            261,
            "CDISCPILOT01",
            "QS",
            "01-703-1076",
            2003,
            "MMITM03",
            "NAME 3 OBJECTS: 1 SECOND TO SAY EACH.",
            "MMSE",
            "REGISTRATION",
            "3",
            "",
            "3",
            3,
            "",
            "",
            "",
            "",
            "",
            1,
            "SCREENING 1",
            -7,
            "TREATMENT",
            "2013-10-17",
            -8
          ],
          [
            262,
            "CDISCPILOT01",
            "QS",
            "01-703-1076",
            2004,
            "MMITM04",
            "SERIAL 7'S. 1 POINT FOR EACH CORRECT.",
            "MMSE",
            "ATTENTION AND CALCULATI",
            "2",
            "",
            "2",
            2,
            "",
            "",
            "",
            "",
            "",
            1,
            "SCREENING 1",
            -7,
            "TREATMENT",
            "2013-10-17",
            -8
          ],
          [
            263,
            "CDISCPILOT01",
            "QS",
            "01-703-1076",
            2005,
            "MMITM05",
            "ASK FOR THE 3 OBJECTS REPEATED ABOVE.",
            "MMSE",
            "RECALL",
            "0",
            "",
            "0",
            0,
            "",
            "",
            "",
            "",
            "",
            1,
            "SCREENING 1",
            -7,
            "TREATMENT",
            "2013-10-17",
            -8
          ],
          [
            264,
            "CDISCPILOT01",
            "QS",
            "01-703-1076",
            2006,
            "MMITM06",
            "NAME A PENCIL, AND WATCH (2 POINTS)",
            "MMSE",
            "LANGUAGE",
            "9",
            "",
            "9",
            9,
            "",
            "",
            "",
            "",
            "",
            1,
            "SCREENING 1",
            -7,
            "TREATMENT",
            "2013-10-17",
            -8
          ],
          [
            265,
            "CDISCPILOT01",
            "QS",
            "01-703-1086",
            2001,
            "MMITM01",
            "WHAT IS THE (YEAR) (SEASON) (DATE) ?",
            "MMSE",
            "ORIENTATION",
            "0",
            "",
            "0",
            0,
            "",
            "",
            "",
            "",
            "",
            1,
            "SCREENING 1",
            -7,
            "TREATMENT",
            "2012-08-22",
            -11
          ],
          [
            266,
            "CDISCPILOT01",
            "QS",
            "01-703-1086",
            2002,
            "MMITM02",
            "WHERE ARE WE: (STATE) (COUNTRY) (TOWN) ?",
            "MMSE",
            "ORIENTATION",
            "3",
            "",
            "3",
            3,
            "",
            "",
            "",
            "",
            "",
            1,
            "SCREENING 1",
            -7,
            "TREATMENT",
            "2012-08-22",
            -11
          ],
          [
            267,
            "CDISCPILOT01",
            "QS",
            "01-703-1086",
            2003,
            "MMITM03",
            "NAME 3 OBJECTS: 1 SECOND TO SAY EACH.",
            "MMSE",
            "REGISTRATION",
            "3",
            "",
            "3",
            3,
            "",
            "",
            "",
            "",
            "",
            1,
            "SCREENING 1",
            -7,
            "TREATMENT",
            "2012-08-22",
            -11
          ],
          [
            268,
            "CDISCPILOT01",
            "QS",
            "01-703-1086",
            2004,
            "MMITM04",
            "SERIAL 7'S. 1 POINT FOR EACH CORRECT.",
            "MMSE",
            "ATTENTION AND CALCULATI",
            "3",
            "",
            "3",
            3,
            "",
            "",
            "",
            "",
            "",
            1,
            "SCREENING 1",
            -7,
            "TREATMENT",
            "2012-08-22",
            -11
          ],
          [
            269,
            "CDISCPILOT01",
            "QS",
            "01-703-1086",
            2005,
            "MMITM05",
            "ASK FOR THE 3 OBJECTS REPEATED ABOVE.",
            "MMSE",
            "RECALL",
            "0",
            "",
            "0",
            0,
            "",
            "",
            "",
            "",
            "",
            1,
            "SCREENING 1",
            -7,
            "TREATMENT",
            "2012-08-22",
            -11
          ],
          [
            270,
            "CDISCPILOT01",
            "QS",
            "01-703-1086",
            2006,
            "MMITM06",
            "NAME A PENCIL, AND WATCH (2 POINTS)",
            "MMSE",
            "LANGUAGE",
            "8",
            "",
            "8",
            8,
            "",
            "",
            "",
            "",
            "",
            1,
            "SCREENING 1",
            -7,
            "TREATMENT",
            "2012-08-22",
            -11
          ],
          [
            271,
            "CDISCPILOT01",
            "QS",
            "01-703-1096",
            2001,
            "MMITM01",
            "WHAT IS THE (YEAR) (SEASON) (DATE) ?",
            "MMSE",
            "ORIENTATION",
            "4",
            "",
            "4",
            4,
            "",
            "",
            "",
            "",
            "",
            1,
            "SCREENING 1",
            -7,
            "TREATMENT",
            "2012-12-19",
            -37
          ],
          [
            272,
            "CDISCPILOT01",
            "QS",
            "01-703-1096",
            2002,
            "MMITM02",
            "WHERE ARE WE: (STATE) (COUNTRY) (TOWN) ?",
            "MMSE",
            "ORIENTATION",
            "3",
            "",
            "3",
            3,
            "",
            "",
            "",
            "",
            "",
            1,
            "SCREENING 1",
            -7,
            "TREATMENT",
            "2012-12-19",
            -37
          ],
          [
            273,
            "CDISCPILOT01",
            "QS",
            "01-703-1096",
            2003,
            "MMITM03",
            "NAME 3 OBJECTS: 1 SECOND TO SAY EACH.",
            "MMSE",
            "REGISTRATION",
            "3",
            "",
            "3",
            3,
            "",
            "",
            "",
            "",
            "",
            1,
            "SCREENING 1",
            -7,
            "TREATMENT",
            "2012-12-19",
            -37
          ],
          [
            274,
            "CDISCPILOT01",
            "QS",
            "01-703-1096",
            2004,
            "MMITM04",
            "SERIAL 7'S. 1 POINT FOR EACH CORRECT.",
            "MMSE",
            "ATTENTION AND CALCULATI",
            "5",
            "",
            "5",
            5,
            "",
            "",
            "",
            "",
            "",
            1,
            "SCREENING 1",
            -7,
            "TREATMENT",
            "2012-12-19",
            -37
          ],
          [
            275,
            "CDISCPILOT01",
            "QS",
            "01-703-1096",
            2005,
            "MMITM05",
            "ASK FOR THE 3 OBJECTS REPEATED ABOVE.",
            "MMSE",
            "RECALL",
            "0",
            "",
            "0",
            0,
            "",
            "",
            "",
            "",
            "",
            1,
            "SCREENING 1",
            -7,
            "TREATMENT",
            "2012-12-19",
            -37
          ],
          [
            276,
            "CDISCPILOT01",
            "QS",
            "01-703-1096",
            2006,
            "MMITM06",
            "NAME A PENCIL, AND WATCH (2 POINTS)",
            "MMSE",
            "LANGUAGE",
            "7",
            "",
            "7",
            7,
            "",
            "",
            "",
            "",
            "",
            1,
            "SCREENING 1",
            -7,
            "TREATMENT",
            "2012-12-19",
            -37
          ],
          [
            277,
            "CDISCPILOT01",
            "QS",
            "01-703-1100",
            2001,
            "MMITM01",
            "WHAT IS THE (YEAR) (SEASON) (DATE) ?",
            "MMSE",
            "ORIENTATION",
            "2",
            "",
            "2",
            2,
            "",
            "",
            "",
            "",
            "",
            1,
            "SCREENING 1",
            -7,
            "TREATMENT",
            "2013-02-28",
            -13
          ],
          [
            278,
            "CDISCPILOT01",
            "QS",
            "01-703-1100",
            2002,
            "MMITM02",
            "WHERE ARE WE: (STATE) (COUNTRY) (TOWN) ?",
            "MMSE",
            "ORIENTATION",
            "3",
            "",
            "3",
            3,
            "",
            "",
            "",
            "",
            "",
            1,
            "SCREENING 1",
            -7,
            "TREATMENT",
            "2013-02-28",
            -13
          ],
          [
            279,
            "CDISCPILOT01",
            "QS",
            "01-703-1100",
            2003,
            "MMITM03",
            "NAME 3 OBJECTS: 1 SECOND TO SAY EACH.",
            "MMSE",
            "REGISTRATION",
            "3",
            "",
            "3",
            3,
            "",
            "",
            "",
            "",
            "",
            1,
            "SCREENING 1",
            -7,
            "TREATMENT",
            "2013-02-28",
            -13
          ],
          [
            280,
            "CDISCPILOT01",
            "QS",
            "01-703-1100",
            2004,
            "MMITM04",
            "SERIAL 7'S. 1 POINT FOR EACH CORRECT.",
            "MMSE",
            "ATTENTION AND CALCULATI",
            "5",
            "",
            "5",
            5,
            "",
            "",
            "",
            "",
            "",
            1,
            "SCREENING 1",
            -7,
            "TREATMENT",
            "2013-02-28",
            -13
          ],
          [
            281,
            "CDISCPILOT01",
            "QS",
            "01-703-1100",
            2005,
            "MMITM05",
            "ASK FOR THE 3 OBJECTS REPEATED ABOVE.",
            "MMSE",
            "RECALL",
            "0",
            "",
            "0",
            0,
            "",
            "",
            "",
            "",
            "",
            1,
            "SCREENING 1",
            -7,
            "TREATMENT",
            "2013-02-28",
            -13
          ],
          [
            282,
            "CDISCPILOT01",
            "QS",
            "01-703-1100",
            2006,
            "MMITM06",
            "NAME A PENCIL, AND WATCH (2 POINTS)",
            "MMSE",
            "LANGUAGE",
            "9",
            "",
            "9",
            9,
            "",
            "",
            "",
            "",
            "",
            1,
            "SCREENING 1",
            -7,
            "TREATMENT",
            "2013-02-28",
            -13
          ],
          [
            283,
            "CDISCPILOT01",
            "QS",
            "01-703-1119",
            2001,
            "MMITM01",
            "WHAT IS THE (YEAR) (SEASON) (DATE) ?",
            "MMSE",
            "ORIENTATION",
            "0",
            "",
            "0",
            0,
            "",
            "",
            "",
            "",
            "",
            1,
            "SCREENING 1",
            -7,
            "TREATMENT",
            "2013-02-02",
            -18
          ],
          [
            284,
            "CDISCPILOT01",
            "QS",
            "01-703-1119",
            2002,
            "MMITM02",
            "WHERE ARE WE: (STATE) (COUNTRY) (TOWN) ?",
            "MMSE",
            "ORIENTATION",
            "2",
            "",
            "2",
            2,
            "",
            "",
            "",
            "",
            "",
            1,
            "SCREENING 1",
            -7,
            "TREATMENT",
            "2013-02-02",
            -18
          ],
          [
            285,
            "CDISCPILOT01",
            "QS",
            "01-703-1119",
            2003,
            "MMITM03",
            "NAME 3 OBJECTS: 1 SECOND TO SAY EACH.",
            "MMSE",
            "REGISTRATION",
            "3",
            "",
            "3",
            3,
            "",
            "",
            "",
            "",
            "",
            1,
            "SCREENING 1",
            -7,
            "TREATMENT",
            "2013-02-02",
            -18
          ],
          [
            286,
            "CDISCPILOT01",
            "QS",
            "01-703-1119",
            2004,
            "MMITM04",
            "SERIAL 7'S. 1 POINT FOR EACH CORRECT.",
            "MMSE",
            "ATTENTION AND CALCULATI",
            "3",
            "",
            "3",
            3,
            "",
            "",
            "",
            "",
            "",
            1,
            "SCREENING 1",
            -7,
            "TREATMENT",
            "2013-02-02",
            -18
          ],
          [
            287,
            "CDISCPILOT01",
            "QS",
            "01-703-1119",
            2005,
            "MMITM05",
            "ASK FOR THE 3 OBJECTS REPEATED ABOVE.",
            "MMSE",
            "RECALL",
            "0",
            "",
            "0",
            0,
            "",
            "",
            "",
            "",
            "",
            1,
            "SCREENING 1",
            -7,
            "TREATMENT",
            "2013-02-02",
            -18
          ],
          [
            288,
            "CDISCPILOT01",
            "QS",
            "01-703-1119",
            2006,
            "MMITM06",
            "NAME A PENCIL, AND WATCH (2 POINTS)",
            "MMSE",
            "LANGUAGE",
            "6",
            "",
            "6",
            6,
            "",
            "",
            "",
            "",
            "",
            1,
            "SCREENING 1",
            -7,
            "TREATMENT",
            "2013-02-02",
            -18
          ],
          [
            289,
            "CDISCPILOT01",
            "QS",
            "01-703-1175",
            2001,
            "MMITM01",
            "WHAT IS THE (YEAR) (SEASON) (DATE) ?",
            "MMSE",
            "ORIENTATION",
            "1",
            "",
            "1",
            1,
            "",
            "",
            "",
            "",
            "",
            1,
            "SCREENING 1",
            -7,
            "TREATMENT",
            "2013-12-13",
            -7
          ],
          [
            290,
            "CDISCPILOT01",
            "QS",
            "01-703-1175",
            2002,
            "MMITM02",
            "WHERE ARE WE: (STATE) (COUNTRY) (TOWN) ?",
            "MMSE",
            "ORIENTATION",
            "2",
            "",
            "2",
            2,
            "",
            "",
            "",
            "",
            "",
            1,
            "SCREENING 1",
            -7,
            "TREATMENT",
            "2013-12-13",
            -7
          ],
          [
            291,
            "CDISCPILOT01",
            "QS",
            "01-703-1175",
            2003,
            "MMITM03",
            "NAME 3 OBJECTS: 1 SECOND TO SAY EACH.",
            "MMSE",
            "REGISTRATION",
            "3",
            "",
            "3",
            3,
            "",
            "",
            "",
            "",
            "",
            1,
            "SCREENING 1",
            -7,
            "TREATMENT",
            "2013-12-13",
            -7
          ],
          [
            292,
            "CDISCPILOT01",
            "QS",
            "01-703-1175",
            2004,
            "MMITM04",
            "SERIAL 7'S. 1 POINT FOR EACH CORRECT.",
            "MMSE",
            "ATTENTION AND CALCULATI",
            "0",
            "",
            "0",
            0,
            "",
            "",
            "",
            "",
            "",
            1,
            "SCREENING 1",
            -7,
            "TREATMENT",
            "2013-12-13",
            -7
          ],
          [
            293,
            "CDISCPILOT01",
            "QS",
            "01-703-1175",
            2005,
            "MMITM05",
            "ASK FOR THE 3 OBJECTS REPEATED ABOVE.",
            "MMSE",
            "RECALL",
            "0",
            "",
            "0",
            0,
            "",
            "",
            "",
            "",
            "",
            1,
            "SCREENING 1",
            -7,
            "TREATMENT",
            "2013-12-13",
            -7
          ],
          [
            294,
            "CDISCPILOT01",
            "QS",
            "01-703-1175",
            2006,
            "MMITM06",
            "NAME A PENCIL, AND WATCH (2 POINTS)",
            "MMSE",
            "LANGUAGE",
            "5",
            "",
            "5",
            5,
            "",
            "",
            "",
            "",
            "",
            1,
            "SCREENING 1",
            -7,
            "TREATMENT",
            "2013-12-13",
            -7
          ],
          [
            295,
            "CDISCPILOT01",
            "QS",
            "01-703-1182",
            2001,
            "MMITM01",
            "WHAT IS THE (YEAR) (SEASON) (DATE) ?",
            "MMSE",
            "ORIENTATION",
            "3",
            "",
            "3",
            3,
            "",
            "",
            "",
            "",
            "",
            1,
            "SCREENING 1",
            -7,
            "TREATMENT",
            "2013-10-08",
            -9
          ],
          [
            296,
            "CDISCPILOT01",
            "QS",
            "01-703-1182",
            2002,
            "MMITM02",
            "WHERE ARE WE: (STATE) (COUNTRY) (TOWN) ?",
            "MMSE",
            "ORIENTATION",
            "3",
            "",
            "3",
            3,
            "",
            "",
            "",
            "",
            "",
            1,
            "SCREENING 1",
            -7,
            "TREATMENT",
            "2013-10-08",
            -9
          ],
          [
            297,
            "CDISCPILOT01",
            "QS",
            "01-703-1182",
            2003,
            "MMITM03",
            "NAME 3 OBJECTS: 1 SECOND TO SAY EACH.",
            "MMSE",
            "REGISTRATION",
            "3",
            "",
            "3",
            3,
            "",
            "",
            "",
            "",
            "",
            1,
            "SCREENING 1",
            -7,
            "TREATMENT",
            "2013-10-08",
            -9
          ],
          [
            298,
            "CDISCPILOT01",
            "QS",
            "01-703-1182",
            2004,
            "MMITM04",
            "SERIAL 7'S. 1 POINT FOR EACH CORRECT.",
            "MMSE",
            "ATTENTION AND CALCULATI",
            "5",
            "",
            "5",
            5,
            "",
            "",
            "",
            "",
            "",
            1,
            "SCREENING 1",
            -7,
            "TREATMENT",
            "2013-10-08",
            -9
          ],
          [
            299,
            "CDISCPILOT01",
            "QS",
            "01-703-1182",
            2005,
            "MMITM05",
            "ASK FOR THE 3 OBJECTS REPEATED ABOVE.",
            "MMSE",
            "RECALL",
            "0",
            "",
            "0",
            0,
            "",
            "",
            "",
            "",
            "",
            1,
            "SCREENING 1",
            -7,
            "TREATMENT",
            "2013-10-08",
            -9
          ],
          [
            300,
            "CDISCPILOT01",
            "QS",
            "01-703-1182",
            2006,
            "MMITM06",
            "NAME A PENCIL, AND WATCH (2 POINTS)",
            "MMSE",
            "LANGUAGE",
            "8",
            "",
            "8",
            8,
            "",
            "",
            "",
            "",
            "",
            1,
            "SCREENING 1",
            -7,
            "TREATMENT",
            "2013-10-08",
            -9
          ],
          [
            301,
            "CDISCPILOT01",
            "QS",
            "01-703-1197",
            2001,
            "MMITM01",
            "WHAT IS THE (YEAR) (SEASON) (DATE) ?",
            "MMSE",
            "ORIENTATION",
            "0",
            "",
            "0",
            0,
            "",
            "",
            "",
            "",
            "",
            1,
            "SCREENING 1",
            -7,
            "TREATMENT",
            "2013-06-01",
            -15
          ],
          [
            302,
            "CDISCPILOT01",
            "QS",
            "01-703-1197",
            2002,
            "MMITM02",
            "WHERE ARE WE: (STATE) (COUNTRY) (TOWN) ?",
            "MMSE",
            "ORIENTATION",
            "3",
            "",
            "3",
            3,
            "",
            "",
            "",
            "",
            "",
            1,
            "SCREENING 1",
            -7,
            "TREATMENT",
            "2013-06-01",
            -15
          ],
          [
            303,
            "CDISCPILOT01",
            "QS",
            "01-703-1197",
            2003,
            "MMITM03",
            "NAME 3 OBJECTS: 1 SECOND TO SAY EACH.",
            "MMSE",
            "REGISTRATION",
            "3",
            "",
            "3",
            3,
            "",
            "",
            "",
            "",
            "",
            1,
            "SCREENING 1",
            -7,
            "TREATMENT",
            "2013-06-01",
            -15
          ],
          [
            304,
            "CDISCPILOT01",
            "QS",
            "01-703-1197",
            2004,
            "MMITM04",
            "SERIAL 7'S. 1 POINT FOR EACH CORRECT.",
            "MMSE",
            "ATTENTION AND CALCULATI",
            "0",
            "",
            "0",
            0,
            "",
            "",
            "",
            "",
            "",
            1,
            "SCREENING 1",
            -7,
            "TREATMENT",
            "2013-06-01",
            -15
          ],
          [
            305,
            "CDISCPILOT01",
            "QS",
            "01-703-1197",
            2005,
            "MMITM05",
            "ASK FOR THE 3 OBJECTS REPEATED ABOVE.",
            "MMSE",
            "RECALL",
            "0",
            "",
            "0",
            0,
            "",
            "",
            "",
            "",
            "",
            1,
            "SCREENING 1",
            -7,
            "TREATMENT",
            "2013-06-01",
            -15
          ],
          [
            306,
            "CDISCPILOT01",
            "QS",
            "01-703-1197",
            2006,
            "MMITM06",
            "NAME A PENCIL, AND WATCH (2 POINTS)",
            "MMSE",
            "LANGUAGE",
            "6",
            "",
            "6",
            6,
            "",
            "",
            "",
            "",
            "",
            1,
            "SCREENING 1",
            -7,
            "TREATMENT",
            "2013-06-01",
            -15
          ],
          [
            307,
            "CDISCPILOT01",
            "QS",
            "01-703-1210",
            2001,
            "MMITM01",
            "WHAT IS THE (YEAR) (SEASON) (DATE) ?",
            "MMSE",
            "ORIENTATION",
            "0",
            "",
            "0",
            0,
            "",
            "",
            "",
            "",
            "",
            1,
            "SCREENING 1",
            -7,
            "TREATMENT",
            "2013-03-08",
            -8
          ],
          [
            308,
            "CDISCPILOT01",
            "QS",
            "01-703-1210",
            2002,
            "MMITM02",
            "WHERE ARE WE: (STATE) (COUNTRY) (TOWN) ?",
            "MMSE",
            "ORIENTATION",
            "2",
            "",
            "2",
            2,
            "",
            "",
            "",
            "",
            "",
            1,
            "SCREENING 1",
            -7,
            "TREATMENT",
            "2013-03-08",
            -8
          ],
          [
            309,
            "CDISCPILOT01",
            "QS",
            "01-703-1210",
            2003,
            "MMITM03",
            "NAME 3 OBJECTS: 1 SECOND TO SAY EACH.",
            "MMSE",
            "REGISTRATION",
            "3",
            "",
            "3",
            3,
            "",
            "",
            "",
            "",
            "",
            1,
            "SCREENING 1",
            -7,
            "TREATMENT",
            "2013-03-08",
            -8
          ],
          [
            310,
            "CDISCPILOT01",
            "QS",
            "01-703-1210",
            2004,
            "MMITM04",
            "SERIAL 7'S. 1 POINT FOR EACH CORRECT.",
            "MMSE",
            "ATTENTION AND CALCULATI",
            "5",
            "",
            "5",
            5,
            "",
            "",
            "",
            "",
            "",
            1,
            "SCREENING 1",
            -7,
            "TREATMENT",
            "2013-03-08",
            -8
          ],
          [
            311,
            "CDISCPILOT01",
            "QS",
            "01-703-1210",
            2005,
            "MMITM05",
            "ASK FOR THE 3 OBJECTS REPEATED ABOVE.",
            "MMSE",
            "RECALL",
            "3",
            "",
            "3",
            3,
            "",
            "",
            "",
            "",
            "",
            1,
            "SCREENING 1",
            -7,
            "TREATMENT",
            "2013-03-08",
            -8
          ],
          [
            312,
            "CDISCPILOT01",
            "QS",
            "01-703-1210",
            2006,
            "MMITM06",
            "NAME A PENCIL, AND WATCH (2 POINTS)",
            "MMSE",
            "LANGUAGE",
            "6",
            "",
            "6",
            6,
            "",
            "",
            "",
            "",
            "",
            1,
            "SCREENING 1",
            -7,
            "TREATMENT",
            "2013-03-08",
            -8
          ],
          [
            313,
            "CDISCPILOT01",
            "QS",
            "01-703-1258",
            2001,
            "MMITM01",
            "WHAT IS THE (YEAR) (SEASON) (DATE) ?",
            "MMSE",
            "ORIENTATION",
            "1",
            "",
            "1",
            1,
            "",
            "",
            "",
            "",
            "",
            1,
            "SCREENING 1",
            -7,
            "TREATMENT",
            "2012-07-10",
            -10
          ],
          [
            314,
            "CDISCPILOT01",
            "QS",
            "01-703-1258",
            2002,
            "MMITM02",
            "WHERE ARE WE: (STATE) (COUNTRY) (TOWN) ?",
            "MMSE",
            "ORIENTATION",
            "1",
            "",
            "1",
            1,
            "",
            "",
            "",
            "",
            "",
            1,
            "SCREENING 1",
            -7,
            "TREATMENT",
            "2012-07-10",
            -10
          ],
          [
            315,
            "CDISCPILOT01",
            "QS",
            "01-703-1258",
            2003,
            "MMITM03",
            "NAME 3 OBJECTS: 1 SECOND TO SAY EACH.",
            "MMSE",
            "REGISTRATION",
            "3",
            "",
            "3",
            3,
            "",
            "",
            "",
            "",
            "",
            1,
            "SCREENING 1",
            -7,
            "TREATMENT",
            "2012-07-10",
            -10
          ],
          [
            316,
            "CDISCPILOT01",
            "QS",
            "01-703-1258",
            2004,
            "MMITM04",
            "SERIAL 7'S. 1 POINT FOR EACH CORRECT.",
            "MMSE",
            "ATTENTION AND CALCULATI",
            "0",
            "",
            "0",
            0,
            "",
            "",
            "",
            "",
            "",
            1,
            "SCREENING 1",
            -7,
            "TREATMENT",
            "2012-07-10",
            -10
          ],
          [
            317,
            "CDISCPILOT01",
            "QS",
            "01-703-1258",
            2005,
            "MMITM05",
            "ASK FOR THE 3 OBJECTS REPEATED ABOVE.",
            "MMSE",
            "RECALL",
            "0",
            "",
            "0",
            0,
            "",
            "",
            "",
            "",
            "",
            1,
            "SCREENING 1",
            -7,
            "TREATMENT",
            "2012-07-10",
            -10
          ],
          [
            318,
            "CDISCPILOT01",
            "QS",
            "01-703-1258",
            2006,
            "MMITM06",
            "NAME A PENCIL, AND WATCH (2 POINTS)",
            "MMSE",
            "LANGUAGE",
            "8",
            "",
            "8",
            8,
            "",
            "",
            "",
            "",
            "",
            1,
            "SCREENING 1",
            -7,
            "TREATMENT",
            "2012-07-10",
            -10
          ],
          [
            319,
            "CDISCPILOT01",
            "QS",
            "01-703-1279",
            2001,
            "MMITM01",
            "WHAT IS THE (YEAR) (SEASON) (DATE) ?",
            "MMSE",
            "ORIENTATION",
            "1",
            "",
            "1",
            1,
            "",
            "",
            "",
            "",
            "",
            1,
            "SCREENING 1",
            -7,
            "TREATMENT",
            "2013-04-27",
            -16
          ],
          [
            320,
            "CDISCPILOT01",
            "QS",
            "01-703-1279",
            2002,
            "MMITM02",
            "WHERE ARE WE: (STATE) (COUNTRY) (TOWN) ?",
            "MMSE",
            "ORIENTATION",
            "1",
            "",
            "1",
            1,
            "",
            "",
            "",
            "",
            "",
            1,
            "SCREENING 1",
            -7,
            "TREATMENT",
            "2013-04-27",
            -16
          ],
          [
            321,
            "CDISCPILOT01",
            "QS",
            "01-703-1279",
            2003,
            "MMITM03",
            "NAME 3 OBJECTS: 1 SECOND TO SAY EACH.",
            "MMSE",
            "REGISTRATION",
            "3",
            "",
            "3",
            3,
            "",
            "",
            "",
            "",
            "",
            1,
            "SCREENING 1",
            -7,
            "TREATMENT",
            "2013-04-27",
            -16
          ],
          [
            322,
            "CDISCPILOT01",
            "QS",
            "01-703-1279",
            2004,
            "MMITM04",
            "SERIAL 7'S. 1 POINT FOR EACH CORRECT.",
            "MMSE",
            "ATTENTION AND CALCULATI",
            "2",
            "",
            "2",
            2,
            "",
            "",
            "",
            "",
            "",
            1,
            "SCREENING 1",
            -7,
            "TREATMENT",
            "2013-04-27",
            -16
          ],
          [
            323,
            "CDISCPILOT01",
            "QS",
            "01-703-1279",
            2005,
            "MMITM05",
            "ASK FOR THE 3 OBJECTS REPEATED ABOVE.",
            "MMSE",
            "RECALL",
            "0",
            "",
            "0",
            0,
            "",
            "",
            "",
            "",
            "",
            1,
            "SCREENING 1",
            -7,
            "TREATMENT",
            "2013-04-27",
            -16
          ],
          [
            324,
            "CDISCPILOT01",
            "QS",
            "01-703-1279",
            2006,
            "MMITM06",
            "NAME A PENCIL, AND WATCH (2 POINTS)",
            "MMSE",
            "LANGUAGE",
            "7",
            "",
            "7",
            7,
            "",
            "",
            "",
            "",
            "",
            1,
            "SCREENING 1",
            -7,
            "TREATMENT",
            "2013-04-27",
            -16
          ],
          [
            325,
            "CDISCPILOT01",
            "QS",
            "01-703-1295",
            2001,
            "MMITM01",
            "WHAT IS THE (YEAR) (SEASON) (DATE) ?",
            "MMSE",
            "ORIENTATION",
            "3",
            "",
            "3",
            3,
            "",
            "",
            "",
            "",
            "",
            1,
            "SCREENING 1",
            -7,
            "TREATMENT",
            "2013-10-24",
            -28
          ],
          [
            326,
            "CDISCPILOT01",
            "QS",
            "01-703-1295",
            2002,
            "MMITM02",
            "WHERE ARE WE: (STATE) (COUNTRY) (TOWN) ?",
            "MMSE",
            "ORIENTATION",
            "2",
            "",
            "2",
            2,
            "",
            "",
            "",
            "",
            "",
            1,
            "SCREENING 1",
            -7,
            "TREATMENT",
            "2013-10-24",
            -28
          ],
          [
            327,
            "CDISCPILOT01",
            "QS",
            "01-703-1295",
            2003,
            "MMITM03",
            "NAME 3 OBJECTS: 1 SECOND TO SAY EACH.",
            "MMSE",
            "REGISTRATION",
            "3",
            "",
            "3",
            3,
            "",
            "",
            "",
            "",
            "",
            1,
            "SCREENING 1",
            -7,
            "TREATMENT",
            "2013-10-24",
            -28
          ],
          [
            328,
            "CDISCPILOT01",
            "QS",
            "01-703-1295",
            2004,
            "MMITM04",
            "SERIAL 7'S. 1 POINT FOR EACH CORRECT.",
            "MMSE",
            "ATTENTION AND CALCULATI",
            "5",
            "",
            "5",
            5,
            "",
            "",
            "",
            "",
            "",
            1,
            "SCREENING 1",
            -7,
            "TREATMENT",
            "2013-10-24",
            -28
          ],
          [
            329,
            "CDISCPILOT01",
            "QS",
            "01-703-1295",
            2005,
            "MMITM05",
            "ASK FOR THE 3 OBJECTS REPEATED ABOVE.",
            "MMSE",
            "RECALL",
            "0",
            "",
            "0",
            0,
            "",
            "",
            "",
            "",
            "",
            1,
            "SCREENING 1",
            -7,
            "TREATMENT",
            "2013-10-24",
            -28
          ],
          [
            330,
            "CDISCPILOT01",
            "QS",
            "01-703-1295",
            2006,
            "MMITM06",
            "NAME A PENCIL, AND WATCH (2 POINTS)",
            "MMSE",
            "LANGUAGE",
            "7",
            "",
            "7",
            7,
            "",
            "",
            "",
            "",
            "",
            1,
            "SCREENING 1",
            -7,
            "TREATMENT",
            "2013-10-24",
            -28
          ],
          [
            331,
            "CDISCPILOT01",
            "QS",
            "01-703-1299",
            2001,
            "MMITM01",
            "WHAT IS THE (YEAR) (SEASON) (DATE) ?",
            "MMSE",
            "ORIENTATION",
            "4",
            "",
            "4",
            4,
            "",
            "",
            "",
            "",
            "",
            1,
            "SCREENING 1",
            -7,
            "TREATMENT",
            "2012-09-07",
            -5
          ],
          [
            332,
            "CDISCPILOT01",
            "QS",
            "01-703-1299",
            2002,
            "MMITM02",
            "WHERE ARE WE: (STATE) (COUNTRY) (TOWN) ?",
            "MMSE",
            "ORIENTATION",
            "4",
            "",
            "4",
            4,
            "",
            "",
            "",
            "",
            "",
            1,
            "SCREENING 1",
            -7,
            "TREATMENT",
            "2012-09-07",
            -5
          ],
          [
            333,
            "CDISCPILOT01",
            "QS",
            "01-703-1299",
            2003,
            "MMITM03",
            "NAME 3 OBJECTS: 1 SECOND TO SAY EACH.",
            "MMSE",
            "REGISTRATION",
            "3",
            "",
            "3",
            3,
            "",
            "",
            "",
            "",
            "",
            1,
            "SCREENING 1",
            -7,
            "TREATMENT",
            "2012-09-07",
            -5
          ],
          [
            334,
            "CDISCPILOT01",
            "QS",
            "01-703-1299",
            2004,
            "MMITM04",
            "SERIAL 7'S. 1 POINT FOR EACH CORRECT.",
            "MMSE",
            "ATTENTION AND CALCULATI",
            "5",
            "",
            "5",
            5,
            "",
            "",
            "",
            "",
            "",
            1,
            "SCREENING 1",
            -7,
            "TREATMENT",
            "2012-09-07",
            -5
          ],
          [
            335,
            "CDISCPILOT01",
            "QS",
            "01-703-1299",
            2005,
            "MMITM05",
            "ASK FOR THE 3 OBJECTS REPEATED ABOVE.",
            "MMSE",
            "RECALL",
            "0",
            "",
            "0",
            0,
            "",
            "",
            "",
            "",
            "",
            1,
            "SCREENING 1",
            -7,
            "TREATMENT",
            "2012-09-07",
            -5
          ],
          [
            336,
            "CDISCPILOT01",
            "QS",
            "01-703-1299",
            2006,
            "MMITM06",
            "NAME A PENCIL, AND WATCH (2 POINTS)",
            "MMSE",
            "LANGUAGE",
            "7",
            "",
            "7",
            7,
            "",
            "",
            "",
            "",
            "",
            1,
            "SCREENING 1",
            -7,
            "TREATMENT",
            "2012-09-07",
            -5
          ],
          [
            337,
            "CDISCPILOT01",
            "QS",
            "01-703-1335",
            2001,
            "MMITM01",
            "WHAT IS THE (YEAR) (SEASON) (DATE) ?",
            "MMSE",
            "ORIENTATION",
            "0",
            "",
            "0",
            0,
            "",
            "",
            "",
            "",
            "",
            1,
            "SCREENING 1",
            -7,
            "TREATMENT",
            "2014-02-28",
            -17
          ],
          [
            338,
            "CDISCPILOT01",
            "QS",
            "01-703-1335",
            2002,
            "MMITM02",
            "WHERE ARE WE: (STATE) (COUNTRY) (TOWN) ?",
            "MMSE",
            "ORIENTATION",
            "2",
            "",
            "2",
            2,
            "",
            "",
            "",
            "",
            "",
            1,
            "SCREENING 1",
            -7,
            "TREATMENT",
            "2014-02-28",
            -17
          ],
          [
            339,
            "CDISCPILOT01",
            "QS",
            "01-703-1335",
            2003,
            "MMITM03",
            "NAME 3 OBJECTS: 1 SECOND TO SAY EACH.",
            "MMSE",
            "REGISTRATION",
            "3",
            "",
            "3",
            3,
            "",
            "",
            "",
            "",
            "",
            1,
            "SCREENING 1",
            -7,
            "TREATMENT",
            "2014-02-28",
            -17
          ],
          [
            340,
            "CDISCPILOT01",
            "QS",
            "01-703-1335",
            2004,
            "MMITM04",
            "SERIAL 7'S. 1 POINT FOR EACH CORRECT.",
            "MMSE",
            "ATTENTION AND CALCULATI",
            "0",
            "",
            "0",
            0,
            "",
            "",
            "",
            "",
            "",
            1,
            "SCREENING 1",
            -7,
            "TREATMENT",
            "2014-02-28",
            -17
          ],
          [
            341,
            "CDISCPILOT01",
            "QS",
            "01-703-1335",
            2005,
            "MMITM05",
            "ASK FOR THE 3 OBJECTS REPEATED ABOVE.",
            "MMSE",
            "RECALL",
            "0",
            "",
            "0",
            0,
            "",
            "",
            "",
            "",
            "",
            1,
            "SCREENING 1",
            -7,
            "TREATMENT",
            "2014-02-28",
            -17
          ],
          [
            342,
            "CDISCPILOT01",
            "QS",
            "01-703-1335",
            2006,
            "MMITM06",
            "NAME A PENCIL, AND WATCH (2 POINTS)",
            "MMSE",
            "LANGUAGE",
            "5",
            "",
            "5",
            5,
            "",
            "",
            "",
            "",
            "",
            1,
            "SCREENING 1",
            -7,
            "TREATMENT",
            "2014-02-28",
            -17
          ],
          [
            343,
            "CDISCPILOT01",
            "QS",
            "01-703-1379",
            2001,
            "MMITM01",
            "WHAT IS THE (YEAR) (SEASON) (DATE) ?",
            "MMSE",
            "ORIENTATION",
            "1",
            "",
            "1",
            1,
            "",
            "",
            "",
            "",
            "",
            1,
            "SCREENING 1",
            -7,
            "TREATMENT",
            "2013-09-12",
            -10
          ],
          [
            344,
            "CDISCPILOT01",
            "QS",
            "01-703-1379",
            2002,
            "MMITM02",
            "WHERE ARE WE: (STATE) (COUNTRY) (TOWN) ?",
            "MMSE",
            "ORIENTATION",
            "0",
            "",
            "0",
            0,
            "",
            "",
            "",
            "",
            "",
            1,
            "SCREENING 1",
            -7,
            "TREATMENT",
            "2013-09-12",
            -10
          ],
          [
            345,
            "CDISCPILOT01",
            "QS",
            "01-703-1379",
            2003,
            "MMITM03",
            "NAME 3 OBJECTS: 1 SECOND TO SAY EACH.",
            "MMSE",
            "REGISTRATION",
            "3",
            "",
            "3",
            3,
            "",
            "",
            "",
            "",
            "",
            1,
            "SCREENING 1",
            -7,
            "TREATMENT",
            "2013-09-12",
            -10
          ],
          [
            346,
            "CDISCPILOT01",
            "QS",
            "01-703-1379",
            2004,
            "MMITM04",
            "SERIAL 7'S. 1 POINT FOR EACH CORRECT.",
            "MMSE",
            "ATTENTION AND CALCULATI",
            "1",
            "",
            "1",
            1,
            "",
            "",
            "",
            "",
            "",
            1,
            "SCREENING 1",
            -7,
            "TREATMENT",
            "2013-09-12",
            -10
          ],
          [
            347,
            "CDISCPILOT01",
            "QS",
            "01-703-1379",
            2005,
            "MMITM05",
            "ASK FOR THE 3 OBJECTS REPEATED ABOVE.",
            "MMSE",
            "RECALL",
            "0",
            "",
            "0",
            0,
            "",
            "",
            "",
            "",
            "",
            1,
            "SCREENING 1",
            -7,
            "TREATMENT",
            "2013-09-12",
            -10
          ],
          [
            348,
            "CDISCPILOT01",
            "QS",
            "01-703-1379",
            2006,
            "MMITM06",
            "NAME A PENCIL, AND WATCH (2 POINTS)",
            "MMSE",
            "LANGUAGE",
            "7",
            "",
            "7",
            7,
            "",
            "",
            "",
            "",
            "",
            1,
            "SCREENING 1",
            -7,
            "TREATMENT",
            "2013-09-12",
            -10
          ],
          [
            349,
            "CDISCPILOT01",
            "QS",
            "01-703-1403",
            2001,
            "MMITM01",
            "WHAT IS THE (YEAR) (SEASON) (DATE) ?",
            "MMSE",
            "ORIENTATION",
            "3",
            "",
            "3",
            3,
            "",
            "",
            "",
            "",
            "",
            1,
            "SCREENING 1",
            -7,
            "TREATMENT",
            "2012-12-05",
            -7
          ],
          [
            350,
            "CDISCPILOT01",
            "QS",
            "01-703-1403",
            2002,
            "MMITM02",
            "WHERE ARE WE: (STATE) (COUNTRY) (TOWN) ?",
            "MMSE",
            "ORIENTATION",
            "4",
            "",
            "4",
            4,
            "",
            "",
            "",
            "",
            "",
            1,
            "SCREENING 1",
            -7,
            "TREATMENT",
            "2012-12-05",
            -7
          ],
          [
            351,
            "CDISCPILOT01",
            "QS",
            "01-703-1403",
            2003,
            "MMITM03",
            "NAME 3 OBJECTS: 1 SECOND TO SAY EACH.",
            "MMSE",
            "REGISTRATION",
            "3",
            "",
            "3",
            3,
            "",
            "",
            "",
            "",
            "",
            1,
            "SCREENING 1",
            -7,
            "TREATMENT",
            "2012-12-05",
            -7
          ],
          [
            352,
            "CDISCPILOT01",
            "QS",
            "01-703-1403",
            2004,
            "MMITM04",
            "SERIAL 7'S. 1 POINT FOR EACH CORRECT.",
            "MMSE",
            "ATTENTION AND CALCULATI",
            "5",
            "",
            "5",
            5,
            "",
            "",
            "",
            "",
            "",
            1,
            "SCREENING 1",
            -7,
            "TREATMENT",
            "2012-12-05",
            -7
          ],
          [
            353,
            "CDISCPILOT01",
            "QS",
            "01-703-1403",
            2005,
            "MMITM05",
            "ASK FOR THE 3 OBJECTS REPEATED ABOVE.",
            "MMSE",
            "RECALL",
            "0",
            "",
            "0",
            0,
            "",
            "",
            "",
            "",
            "",
            1,
            "SCREENING 1",
            -7,
            "TREATMENT",
            "2012-12-05",
            -7
          ],
          [
            354,
            "CDISCPILOT01",
            "QS",
            "01-703-1403",
            2006,
            "MMITM06",
            "NAME A PENCIL, AND WATCH (2 POINTS)",
            "MMSE",
            "LANGUAGE",
            "8",
            "",
            "8",
            8,
            "",
            "",
            "",
            "",
            "",
            1,
            "SCREENING 1",
            -7,
            "TREATMENT",
            "2012-12-05",
            -7
          ],
          [
            355,
            "CDISCPILOT01",
            "QS",
            "01-703-1439",
            2001,
            "MMITM01",
            "WHAT IS THE (YEAR) (SEASON) (DATE) ?",
            "MMSE",
            "ORIENTATION",
            "3",
            "",
            "3",
            3,
            "",
            "",
            "",
            "",
            "",
            1,
            "SCREENING 1",
            -7,
            "TREATMENT",
            "2014-03-04",
            -8
          ],
          [
            356,
            "CDISCPILOT01",
            "QS",
            "01-703-1439",
            2002,
            "MMITM02",
            "WHERE ARE WE: (STATE) (COUNTRY) (TOWN) ?",
            "MMSE",
            "ORIENTATION",
            "2",
            "",
            "2",
            2,
            "",
            "",
            "",
            "",
            "",
            1,
            "SCREENING 1",
            -7,
            "TREATMENT",
            "2014-03-04",
            -8
          ],
          [
            357,
            "CDISCPILOT01",
            "QS",
            "01-703-1439",
            2003,
            "MMITM03",
            "NAME 3 OBJECTS: 1 SECOND TO SAY EACH.",
            "MMSE",
            "REGISTRATION",
            "3",
            "",
            "3",
            3,
            "",
            "",
            "",
            "",
            "",
            1,
            "SCREENING 1",
            -7,
            "TREATMENT",
            "2014-03-04",
            -8
          ],
          [
            358,
            "CDISCPILOT01",
            "QS",
            "01-703-1439",
            2004,
            "MMITM04",
            "SERIAL 7'S. 1 POINT FOR EACH CORRECT.",
            "MMSE",
            "ATTENTION AND CALCULATI",
            "1",
            "",
            "1",
            1,
            "",
            "",
            "",
            "",
            "",
            1,
            "SCREENING 1",
            -7,
            "TREATMENT",
            "2014-03-04",
            -8
          ],
          [
            359,
            "CDISCPILOT01",
            "QS",
            "01-703-1439",
            2005,
            "MMITM05",
            "ASK FOR THE 3 OBJECTS REPEATED ABOVE.",
            "MMSE",
            "RECALL",
            "0",
            "",
            "0",
            0,
            "",
            "",
            "",
            "",
            "",
            1,
            "SCREENING 1",
            -7,
            "TREATMENT",
            "2014-03-04",
            -8
          ],
          [
            360,
            "CDISCPILOT01",
            "QS",
            "01-703-1439",
            2006,
            "MMITM06",
            "NAME A PENCIL, AND WATCH (2 POINTS)",
            "MMSE",
            "LANGUAGE",
            "7",
            "",
            "7",
            7,
            "",
            "",
            "",
            "",
            "",
            1,
            "SCREENING 1",
            -7,
            "TREATMENT",
            "2014-03-04",
            -8
          ],
          [
            361,
            "CDISCPILOT01",
            "QS",
            "01-704-1008",
            2001,
            "MMITM01",
            "WHAT IS THE (YEAR) (SEASON) (DATE) ?",
            "MMSE",
            "ORIENTATION",
            "5",
            "",
            "5",
            5,
            "",
            "",
            "",
            "",
            "",
            1,
            "SCREENING 1",
            -7,
            "TREATMENT",
            "2013-01-06",
            -7
          ],
          [
            362,
            "CDISCPILOT01",
            "QS",
            "01-704-1008",
            2002,
            "MMITM02",
            "WHERE ARE WE: (STATE) (COUNTRY) (TOWN) ?",
            "MMSE",
            "ORIENTATION",
            "3",
            "",
            "3",
            3,
            "",
            "",
            "",
            "",
            "",
            1,
            "SCREENING 1",
            -7,
            "TREATMENT",
            "2013-01-06",
            -7
          ],
          [
            363,
            "CDISCPILOT01",
            "QS",
            "01-704-1008",
            2003,
            "MMITM03",
            "NAME 3 OBJECTS: 1 SECOND TO SAY EACH.",
            "MMSE",
            "REGISTRATION",
            "3",
            "",
            "3",
            3,
            "",
            "",
            "",
            "",
            "",
            1,
            "SCREENING 1",
            -7,
            "TREATMENT",
            "2013-01-06",
            -7
          ],
          [
            364,
            "CDISCPILOT01",
            "QS",
            "01-704-1008",
            2004,
            "MMITM04",
            "SERIAL 7'S. 1 POINT FOR EACH CORRECT.",
            "MMSE",
            "ATTENTION AND CALCULATI",
            "3",
            "",
            "3",
            3,
            "",
            "",
            "",
            "",
            "",
            1,
            "SCREENING 1",
            -7,
            "TREATMENT",
            "2013-01-06",
            -7
          ],
          [
            365,
            "CDISCPILOT01",
            "QS",
            "01-704-1008",
            2005,
            "MMITM05",
            "ASK FOR THE 3 OBJECTS REPEATED ABOVE.",
            "MMSE",
            "RECALL",
            "2",
            "",
            "2",
            2,
            "",
            "",
            "",
            "",
            "",
            1,
            "SCREENING 1",
            -7,
            "TREATMENT",
            "2013-01-06",
            -7
          ],
          [
            366,
            "CDISCPILOT01",
            "QS",
            "01-704-1008",
            2006,
            "MMITM06",
            "NAME A PENCIL, AND WATCH (2 POINTS)",
            "MMSE",
            "LANGUAGE",
            "5",
            "",
            "5",
            5,
            "",
            "",
            "",
            "",
            "",
            1,
            "SCREENING 1",
            -7,
            "TREATMENT",
            "2013-01-06",
            -7
          ],
          [
            367,
            "CDISCPILOT01",
            "QS",
            "01-704-1009",
            2001,
            "MMITM01",
            "WHAT IS THE (YEAR) (SEASON) (DATE) ?",
            "MMSE",
            "ORIENTATION",
            "3",
            "",
            "3",
            3,
            "",
            "",
            "",
            "",
            "",
            1,
            "SCREENING 1",
            -7,
            "TREATMENT",
            "2013-08-20",
            -7
          ],
          [
            368,
            "CDISCPILOT01",
            "QS",
            "01-704-1009",
            2002,
            "MMITM02",
            "WHERE ARE WE: (STATE) (COUNTRY) (TOWN) ?",
            "MMSE",
            "ORIENTATION",
            "2",
            "",
            "2",
            2,
            "",
            "",
            "",
            "",
            "",
            1,
            "SCREENING 1",
            -7,
            "TREATMENT",
            "2013-08-20",
            -7
          ],
          [
            369,
            "CDISCPILOT01",
            "QS",
            "01-704-1009",
            2003,
            "MMITM03",
            "NAME 3 OBJECTS: 1 SECOND TO SAY EACH.",
            "MMSE",
            "REGISTRATION",
            "3",
            "",
            "3",
            3,
            "",
            "",
            "",
            "",
            "",
            1,
            "SCREENING 1",
            -7,
            "TREATMENT",
            "2013-08-20",
            -7
          ],
          [
            370,
            "CDISCPILOT01",
            "QS",
            "01-704-1009",
            2004,
            "MMITM04",
            "SERIAL 7'S. 1 POINT FOR EACH CORRECT.",
            "MMSE",
            "ATTENTION AND CALCULATI",
            "5",
            "",
            "5",
            5,
            "",
            "",
            "",
            "",
            "",
            1,
            "SCREENING 1",
            -7,
            "TREATMENT",
            "2013-08-20",
            -7
          ],
          [
            371,
            "CDISCPILOT01",
            "QS",
            "01-704-1009",
            2005,
            "MMITM05",
            "ASK FOR THE 3 OBJECTS REPEATED ABOVE.",
            "MMSE",
            "RECALL",
            "0",
            "",
            "0",
            0,
            "",
            "",
            "",
            "",
            "",
            1,
            "SCREENING 1",
            -7,
