{"clinicalData":{"studyOID":"UpdatedCDISCPILOT.CDISC SDTM.3.2","metaDataVersionOID":"MDV.UpdatedCDISCPILOT.CDISC SDTM.3.2","itemGroupData":{"IG.RELREC":{"records":211,"name":"RELREC","label":"Related Records","items":[{"OID":"ITEMGROUPDATASEQ","name":"ITEMGROUPDATASEQ","label":"Record identifier","type":"integer"},{"OID":"IT.RELREC.STUDYID","name":"STUDYID","label":"Study Identifier","type":"string","length":12},{"OID":"IT.RELREC.RDOMAIN","name":"RDOMAIN","label":"Related Domain Abbreviation","type":"string","length":2},{"OID":"IT.RELREC.USUBJID","name":"USUBJID","label":"Unique Subject Identifier","type":"string","length":11},{"OID":"IT.RELREC.IDVAR","name":"IDVAR","label":"Identifying Variable","type":"string","length":8},{"OID":"IT.RELREC.IDVARVAL","name":"IDVARVAL","label":"Identifying Variable Value","type":"string","length":200},{"OID":"IT.RELREC.RELTYPE","name":"RELTYPE","label":"Relationship Type","type":"string","length":30},{"OID":"IT.RELREC.RELID","name":"RELID","label":"Relationship Identifier","type":"string","length":200}],"itemData":[[1,"CDISCPILOT01","AE","01-701-1023","AESEQ","2","","01-701-1023-E09"],[2,"CDISCPILOT01","AE","01-701-1047","AESEQ","4","","01-701-1047-E09"],[3,"CDISCPILOT01","AE","01-701-1111","AESEQ","7","","01-701-1111-E16"],[4,"CDISCPILOT01","AE","01-701-1115","AESEQ","7","","01-701-1115-E13"],[5,"CDISCPILOT01","AE","01-701-1146","AESEQ","6","","01-701-1146-E13"],[6,"CDISCPILOT01","AE","01-701-1146","AESEQ","8","","01-701-1146-E13"],[7,"CDISCPILOT01","AE","01-701-1180","AESEQ","9","","01-701-1180-E07"],[8,"CDISCPILOT01","AE","01-701-1181","AESEQ","1","","01-701-1181-E16"],[9,"CDISCPILOT01","AE","01-701-1188","AESEQ","7","","01-701-1188-E09"],[10,"CDISCPILOT01","AE","01-701-1211","AESEQ","9","","01-701-1211-E11"],[11,"CDISCPILOT01","AE","01-701-1294","AESEQ","6","","01-701-1294-E09"],[12,"CDISCPILOT01","AE","01-701-1302","AESEQ","8","","01-701-1302-E16"],[13,"CDISCPILOT01","AE","01-701-1302","AESEQ","18","","01-701-1302-E16"],[14,"CDISCPILOT01","AE","01-701-1341","AESEQ","5","","01-701-1341-E13"],[15,"CDISCPILOT01","AE","01-701-1444","AESEQ","7","","01-701-1444-E16"],[16,"CDISCPILOT01","AE","01-703-1076","AESEQ","4","","01-703-1076-E08"],[17,"CDISCPILOT01","AE","01-703-1076","AESEQ","7","","01-703-1076-E08"],[18,"CDISCPILOT01","AE","01-703-1086","AESEQ","2","","01-703-1086-E01"],[19,"CDISCPILOT01","AE","01-703-1086","AESEQ","3","","01-703-1086-E01"],[20,"CDISCPILOT01","AE","01-703-1086","AESEQ","6","","01-703-1086-E01"],[21,"CDISCPILOT01","AE","01-703-1119","AESEQ","3","","01-703-1119-E05"],[22,"CDISCPILOT01","AE","01-703-1119","AESEQ","4","","01-703-1119-E05"],[23,"CDISCPILOT01","AE","01-703-1182","AESEQ","3","","01-703-1182-E07"],[24,"CDISCPILOT01","AE","01-703-1182","AESEQ","4","","01-703-1182-E07"],[25,"CDISCPILOT01","AE","01-703-1258","AESEQ","6","","01-703-1258-E08"],[26,"CDISCPILOT01","AE","01-703-1258","AESEQ","7","","01-703-1258-E08"],[27,"CDISCPILOT01","AE","01-703-1403","AESEQ","2","","01-703-1403-E01"],[28,"CDISCPILOT01","AE","01-704-1008","AESEQ","3","","01-704-1008-E05"],[29,"CDISCPILOT01","AE","01-704-1017","AESEQ","7","","01-704-1017-E11"],[30,"CDISCPILOT01","AE","01-704-1025","AESEQ","6","","01-704-1025-E06"],[31,"CDISCPILOT01","AE","01-704-1065","AESEQ","4","","01-704-1065-E12"],[32,"CDISCPILOT01","AE","01-704-1074","AESEQ","2","","01-704-1074-E09"],[33,"CDISCPILOT01","AE","01-704-1093","AESEQ","3","","01-704-1093-E05"],[34,"CDISCPILOT01","AE","01-704-1120","AESEQ","1","","01-704-1120-E01"],[35,"CDISCPILOT01","AE","01-704-1120","AESEQ","3","","01-704-1120-E01"],[36,"CDISCPILOT01","AE","01-704-1241","AESEQ","1","","01-704-1241-E04"],[37,"CDISCPILOT01","AE","01-704-1266","AESEQ","2","","01-704-1266-E10"],[38,"CDISCPILOT01","AE","01-704-1266","AESEQ","12","","01-704-1266-E10"],[39,"CDISCPILOT01","AE","01-704-1323","AESEQ","2","","01-704-1323-E08"],[40,"CDISCPILOT01","AE","01-704-1332","AESEQ","1","","01-704-1332-E01"],[41,"CDISCPILOT01","AE","01-704-1332","AESEQ","5","","01-704-1332-E01"],[42,"CDISCPILOT01","AE","01-704-1445","AESEQ","1","","01-704-1445-E06"],[43,"CDISCPILOT01","AE","01-705-1059","AESEQ","1","","01-705-1059-E02"],[44,"CDISCPILOT01","AE","01-705-1199","AESEQ","2","","01-705-1199-E06"],[45,"CDISCPILOT01","AE","01-705-1281","AESEQ","1","","01-705-1281-E04"],[46,"CDISCPILOT01","AE","01-705-1281","AESEQ","3","","01-705-1281-E04"],[47,"CDISCPILOT01","AE","01-705-1303","AESEQ","2","","01-705-1303-E03"],[48,"CDISCPILOT01","AE","01-705-1303","AESEQ","4","","01-705-1303-E03"],[49,"CDISCPILOT01","AE","01-705-1310","AESEQ","2","","01-705-1310-E03"],[50,"CDISCPILOT01","AE","01-705-1393","AESEQ","3","","01-705-1393-E05"],[51,"CDISCPILOT01","AE","01-706-1049","AESEQ","2","","01-706-1049-E02"],[52,"CDISCPILOT01","AE","01-706-1384","AESEQ","9","","01-706-1384-E01"],[53,"CDISCPILOT01","AE","01-708-1019","AESEQ","2","","01-708-1019-E03"],[54,"CDISCPILOT01","AE","01-708-1032","AESEQ","1","","01-708-1032-E05"],[55,"CDISCPILOT01","AE","01-708-1158","AESEQ","1","","01-708-1158-E05"],[56,"CDISCPILOT01","AE","01-708-1213","AESEQ","2","","01-708-1213-E03"],[57,"CDISCPILOT01","AE","01-708-1216","AESEQ","1","","01-708-1216-E01"],[58,"CDISCPILOT01","AE","01-708-1297","AESEQ","1","","01-708-1297-E02"],[59,"CDISCPILOT01","AE","01-708-1347","AESEQ","6","","01-708-1347-E03"],[60,"CDISCPILOT01","AE","01-708-1353","AESEQ","3","","01-708-1353-E10"],[61,"CDISCPILOT01","AE","01-708-1428","AESEQ","2","","01-708-1428-E01"],[62,"CDISCPILOT01","AE","01-708-1428","AESEQ","5","","01-708-1428-E01"],[63,"CDISCPILOT01","AE","01-709-1007","AESEQ","3","","01-709-1007-E03"],[64,"CDISCPILOT01","AE","01-709-1081","AESEQ","1","","01-709-1081-E05"],[65,"CDISCPILOT01","AE","01-709-1102","AESEQ","1","","01-709-1102-E01"],[66,"CDISCPILOT01","AE","01-709-1102","AESEQ","3","","01-709-1102-E01"],[67,"CDISCPILOT01","AE","01-709-1168","AESEQ","5","","01-709-1168-E03"],[68,"CDISCPILOT01","AE","01-709-1217","AESEQ","11","","01-709-1217-E10"],[69,"CDISCPILOT01","AE","01-709-1238","AESEQ","2","","01-709-1238-E07"],[70,"CDISCPILOT01","AE","01-709-1306","AESEQ","9","","01-709-1306-E03"],[71,"CDISCPILOT01","AE","01-709-1424","AESEQ","1","","01-709-1424-E05"],[72,"CDISCPILOT01","AE","01-710-1002","AESEQ","2","","01-710-1002-E01"],[73,"CDISCPILOT01","AE","01-710-1021","AESEQ","3","","01-710-1021-E02"],[74,"CDISCPILOT01","AE","01-710-1045","AESEQ","9","","01-710-1045-E07"],[75,"CDISCPILOT01","AE","01-710-1053","AESEQ","4","","01-710-1053-E04"],[76,"CDISCPILOT01","AE","01-710-1070","AESEQ","5","","01-710-1070-E12"],[77,"CDISCPILOT01","AE","01-710-1083","AESEQ","1","","01-710-1083-E04"],[78,"CDISCPILOT01","AE","01-710-1137","AESEQ","3","","01-710-1137-E06"],[79,"CDISCPILOT01","AE","01-710-1142","AESEQ","4","","01-710-1142-E05"],[80,"CDISCPILOT01","AE","01-710-1154","AESEQ","1","","01-710-1154-E04"],[81,"CDISCPILOT01","AE","01-710-1154","AESEQ","2","","01-710-1154-E04"],[82,"CDISCPILOT01","AE","01-710-1166","AESEQ","5","","01-710-1166-E08"],[83,"CDISCPILOT01","AE","01-710-1264","AESEQ","4","","01-710-1264-E07"],[84,"CDISCPILOT01","AE","01-710-1270","AESEQ","2","","01-710-1270-E05"],[85,"CDISCPILOT01","AE","01-710-1271","AESEQ","2","","01-710-1271-E05"],[86,"CDISCPILOT01","AE","01-710-1278","AESEQ","6","","01-710-1278-E02"],[87,"CDISCPILOT01","AE","01-710-1300","AESEQ","3","","01-710-1300-E04"],[88,"CDISCPILOT01","AE","01-710-1315","AESEQ","5","","01-710-1315-E03"],[89,"CDISCPILOT01","AE","01-710-1385","AESEQ","7","","01-710-1385-E12"],[90,"CDISCPILOT01","AE","01-711-1012","AESEQ","1","","01-711-1012-E06"],[91,"CDISCPILOT01","AE","01-711-1012","AESEQ","3","","01-711-1012-E06"],[92,"CDISCPILOT01","AE","01-711-1143","AESEQ","14","","01-711-1143-E21"],[93,"CDISCPILOT01","AE","01-711-1433","AESEQ","3","","01-711-1433-E03"],[94,"CDISCPILOT01","AE","01-713-1141","AESEQ","4","","01-713-1141-E05"],[95,"CDISCPILOT01","AE","01-713-1448","AESEQ","3","","01-713-1448-E03"],[96,"CDISCPILOT01","AE","01-714-1068","AESEQ","4","","01-714-1068-E07"],[97,"CDISCPILOT01","AE","01-714-1068","AESEQ","6","","01-714-1068-E07"],[98,"CDISCPILOT01","AE","01-715-1107","AESEQ","3","","01-715-1107-E01"],[99,"CDISCPILOT01","AE","01-715-1321","AESEQ","3","","01-715-1321-E03"],[100,"CDISCPILOT01","AE","01-715-1405","AESEQ","1","","01-715-1405-E02"],[101,"CDISCPILOT01","AE","01-716-1063","AESEQ","6","","01-716-1063-E10"],[102,"CDISCPILOT01","AE","01-716-1071","AESEQ","3","","01-716-1071-E08"],[103,"CDISCPILOT01","AE","01-716-1094","AESEQ","1","","01-716-1094-E07"],[104,"CDISCPILOT01","AE","01-716-1151","AESEQ","2","","01-716-1151-E06"],[105,"CDISCPILOT01","AE","01-716-1189","AESEQ","4","","01-716-1189-E07"],[106,"CDISCPILOT01","AE","01-716-1229","AESEQ","1","","01-716-1229-E01"],[107,"CDISCPILOT01","AE","01-716-1298","AESEQ","6","","01-716-1298-E07"],[108,"CDISCPILOT01","AE","01-716-1373","AESEQ","2","","01-716-1373-E04"],[109,"CDISCPILOT01","AE","01-718-1066","AESEQ","3","","01-718-1066-E08"],[110,"CDISCPILOT01","AE","01-718-1079","AESEQ","2","","01-718-1079-E03"],[111,"CDISCPILOT01","AE","01-718-1079","AESEQ","3","","01-718-1079-E03"],[112,"CDISCPILOT01","AE","01-718-1170","AESEQ","5","","01-718-1170-E03"],[113,"CDISCPILOT01","AE","01-718-1250","AESEQ","9","","01-718-1250-E06"],[114,"CDISCPILOT01","AE","01-718-1250","AESEQ","11","","01-718-1250-E06"],[115,"CDISCPILOT01","AE","01-718-1371","AESEQ","3","","01-718-1371-E08"],[116,"CDISCPILOT01","AE","01-718-1371","AESEQ","6","","01-718-1371-E08"],[117,"CDISCPILOT01","DS","01-701-1023","DSSEQ","1","","01-701-1023-E09"],[118,"CDISCPILOT01","DS","01-701-1047","DSSEQ","1","","01-701-1047-E09"],[119,"CDISCPILOT01","DS","01-701-1111","DSSEQ","1","","01-701-1111-E16"],[120,"CDISCPILOT01","DS","01-701-1115","DSSEQ","1","","01-701-1115-E13"],[121,"CDISCPILOT01","DS","01-701-1146","DSSEQ","1","","01-701-1146-E13"],[122,"CDISCPILOT01","DS","01-701-1180","DSSEQ","1","","01-701-1180-E07"],[123,"CDISCPILOT01","DS","01-701-1181","DSSEQ","1","","01-701-1181-E16"],[124,"CDISCPILOT01","DS","01-701-1188","DSSEQ","1","","01-701-1188-E09"],[125,"CDISCPILOT01","DS","01-701-1211","DSSEQ","1","","01-701-1211-E11"],[126,"CDISCPILOT01","DS","01-701-1294","DSSEQ","1","","01-701-1294-E09"],[127,"CDISCPILOT01","DS","01-701-1302","DSSEQ","1","","01-701-1302-E16"],[128,"CDISCPILOT01","DS","01-701-1341","DSSEQ","1","","01-701-1341-E13"],[129,"CDISCPILOT01","DS","01-701-1444","DSSEQ","1","","01-701-1444-E16"],[130,"CDISCPILOT01","DS","01-703-1076","DSSEQ","1","","01-703-1076-E08"],[131,"CDISCPILOT01","DS","01-703-1086","DSSEQ","1","","01-703-1086-E01"],[132,"CDISCPILOT01","DS","01-703-1119","DSSEQ","1","","01-703-1119-E05"],[133,"CDISCPILOT01","DS","01-703-1182","DSSEQ","1","","01-703-1182-E07"],[134,"CDISCPILOT01","DS","01-703-1258","DSSEQ","1","","01-703-1258-E08"],[135,"CDISCPILOT01","DS","01-703-1403","DSSEQ","1","","01-703-1403-E01"],[136,"CDISCPILOT01","DS","01-704-1008","DSSEQ","1","","01-704-1008-E05"],[137,"CDISCPILOT01","DS","01-704-1017","DSSEQ","1","","01-704-1017-E11"],[138,"CDISCPILOT01","DS","01-704-1025","DSSEQ","1","","01-704-1025-E06"],[139,"CDISCPILOT01","DS","01-704-1065","DSSEQ","1","","01-704-1065-E12"],[140,"CDISCPILOT01","DS","01-704-1074","DSSEQ","1","","01-704-1074-E09"],[141,"CDISCPILOT01","DS","01-704-1093","DSSEQ","1","","01-704-1093-E05"],[142,"CDISCPILOT01","DS","01-704-1120","DSSEQ","1","","01-704-1120-E01"],[143,"CDISCPILOT01","DS","01-704-1241","DSSEQ","1","","01-704-1241-E04"],[144,"CDISCPILOT01","DS","01-704-1266","DSSEQ","1","","01-704-1266-E10"],[145,"CDISCPILOT01","DS","01-704-1323","DSSEQ","1","","01-704-1323-E08"],[146,"CDISCPILOT01","DS","01-704-1332","DSSEQ","1","","01-704-1332-E01"],[147,"CDISCPILOT01","DS","01-704-1445","DSSEQ","1","","01-704-1445-E06"],[148,"CDISCPILOT01","DS","01-705-1059","DSSEQ","1","","01-705-1059-E02"],[149,"CDISCPILOT01","DS","01-705-1199","DSSEQ","1","","01-705-1199-E06"],[150,"CDISCPILOT01","DS","01-705-1281","DSSEQ","1","","01-705-1281-E04"],[151,"CDISCPILOT01","DS","01-705-1303","DSSEQ","1","","01-705-1303-E03"],[152,"CDISCPILOT01","DS","01-705-1310","DSSEQ","1","","01-705-1310-E03"],[153,"CDISCPILOT01","DS","01-705-1393","DSSEQ","1","","01-705-1393-E05"],[154,"CDISCPILOT01","DS","01-706-1049","DSSEQ","1","","01-706-1049-E02"],[155,"CDISCPILOT01","DS","01-706-1384","DSSEQ","1","","01-706-1384-E01"],[156,"CDISCPILOT01","DS","01-708-1019","DSSEQ","1","","01-708-1019-E03"],[157,"CDISCPILOT01","DS","01-708-1032","DSSEQ","1","","01-708-1032-E05"],[158,"CDISCPILOT01","DS","01-708-1158","DSSEQ","1","","01-708-1158-E05"],[159,"CDISCPILOT01","DS","01-708-1213","DSSEQ","1","","01-708-1213-E03"],[160,"CDISCPILOT01","DS","01-708-1216","DSSEQ","1","","01-708-1216-E01"],[161,"CDISCPILOT01","DS","01-708-1297","DSSEQ","1","","01-708-1297-E02"],[162,"CDISCPILOT01","DS","01-708-1347","DSSEQ","1","","01-708-1347-E03"],[163,"CDISCPILOT01","DS","01-708-1353","DSSEQ","1","","01-708-1353-E10"],[164,"CDISCPILOT01","DS","01-708-1428","DSSEQ","1","","01-708-1428-E01"],[165,"CDISCPILOT01","DS","01-709-1007","DSSEQ","1","","01-709-1007-E03"],[166,"CDISCPILOT01","DS","01-709-1081","DSSEQ","1","","01-709-1081-E05"],[167,"CDISCPILOT01","DS","01-709-1102","DSSEQ","1","","01-709-1102-E01"],[168,"CDISCPILOT01","DS","01-709-1168","DSSEQ","1","","01-709-1168-E03"],[169,"CDISCPILOT01","DS","01-709-1217","DSSEQ","1","","01-709-1217-E10"],[170,"CDISCPILOT01","DS","01-709-1238","DSSEQ","1","","01-709-1238-E07"],[171,"CDISCPILOT01","DS","01-709-1306","DSSEQ","1","","01-709-1306-E03"],[172,"CDISCPILOT01","DS","01-709-1424","DSSEQ","1","","01-709-1424-E05"],[173,"CDISCPILOT01","DS","01-710-1002","DSSEQ","1","","01-710-1002-E01"],[174,"CDISCPILOT01","DS","01-710-1021","DSSEQ","1","","01-710-1021-E02"],[175,"CDISCPILOT01","DS","01-710-1045","DSSEQ","1","","01-710-1045-E07"],[176,"CDISCPILOT01","DS","01-710-1053","DSSEQ","1","","01-710-1053-E04"],[177,"CDISCPILOT01","DS","01-710-1070","DSSEQ","1","","01-710-1070-E12"],[178,"CDISCPILOT01","DS","01-710-1083","DSSEQ","1","","01-710-1083-E04"],[179,"CDISCPILOT01","DS","01-710-1137","DSSEQ","1","","01-710-1137-E06"],[180,"CDISCPILOT01","DS","01-710-1142","DSSEQ","1","","01-710-1142-E05"],[181,"CDISCPILOT01","DS","01-710-1154","DSSEQ","1","","01-710-1154-E04"],[182,"CDISCPILOT01","DS","01-710-1166","DSSEQ","1","","01-710-1166-E08"],[183,"CDISCPILOT01","DS","01-710-1264","DSSEQ","1","","01-710-1264-E07"],[184,"CDISCPILOT01","DS","01-710-1270","DSSEQ","1","","01-710-1270-E05"],[185,"CDISCPILOT01","DS","01-710-1271","DSSEQ","1","","01-710-1271-E05"],[186,"CDISCPILOT01","DS","01-710-1278","DSSEQ","1","","01-710-1278-E02"],[187,"CDISCPILOT01","DS","01-710-1300","DSSEQ","1","","01-710-1300-E04"],[188,"CDISCPILOT01","DS","01-710-1315","DSSEQ","1","","01-710-1315-E03"],[189,"CDISCPILOT01","DS","01-710-1385","DSSEQ","1","","01-710-1385-E12"],[190,"CDISCPILOT01","DS","01-711-1012","DSSEQ","1","","01-711-1012-E06"],[191,"CDISCPILOT01","DS","01-711-1143","DSSEQ","1","","01-711-1143-E21"],[192,"CDISCPILOT01","DS","01-711-1433","DSSEQ","1","","01-711-1433-E03"],[193,"CDISCPILOT01","DS","01-713-1141","DSSEQ","1","","01-713-1141-E05"],[194,"CDISCPILOT01","DS","01-713-1448","DSSEQ","1","","01-713-1448-E03"],[195,"CDISCPILOT01","DS","01-714-1068","DSSEQ","1","","01-714-1068-E07"],[196,"CDISCPILOT01","DS","01-715-1107","DSSEQ","1","","01-715-1107-E01"],[197,"CDISCPILOT01","DS","01-715-1321","DSSEQ","1","","01-715-1321-E03"],[198,"CDISCPILOT01","DS","01-715-1405","DSSEQ","1","","01-715-1405-E02"],[199,"CDISCPILOT01","DS","01-716-1063","DSSEQ","1","","01-716-1063-E10"],[200,"CDISCPILOT01","DS","01-716-1071","DSSEQ","1","","01-716-1071-E08"],[201,"CDISCPILOT01","DS","01-716-1094","DSSEQ","1","","01-716-1094-E07"],[202,"CDISCPILOT01","DS","01-716-1151","DSSEQ","1","","01-716-1151-E06"],[203,"CDISCPILOT01","DS","01-716-1189","DSSEQ","1","","01-716-1189-E07"],[204,"CDISCPILOT01","DS","01-716-1229","DSSEQ","1","","01-716-1229-E01"],[205,"CDISCPILOT01","DS","01-716-1298","DSSEQ","1","","01-716-1298-E07"],[206,"CDISCPILOT01","DS","01-716-1373","DSSEQ","1","","01-716-1373-E04"],[207,"CDISCPILOT01","DS","01-718-1066","DSSEQ","1","","01-718-1066-E08"],[208,"CDISCPILOT01","DS","01-718-1079","DSSEQ","1","","01-718-1079-E03"],[209,"CDISCPILOT01","DS","01-718-1170","DSSEQ","1","","01-718-1170-E03"],[210,"CDISCPILOT01","DS","01-718-1250","DSSEQ","1","","01-718-1250-E06"],[211,"CDISCPILOT01","DS","01-718-1371","DSSEQ","1","","01-718-1371-E08"]]}}}}