{
  "clinicalData": {
    "studyOID": "UpdatedCDISCPILOT.CDISC SDTM.3.2",
    "metaDataVersionOID": "MDV.UpdatedCDISCPILOT.CDISC SDTM.3.2",
    "itemGroupData": {
      "IG.SUPPAE": {
        "records": 961,
        "name": "SUPPAE",
        "label": "Supplemental Qualifiers for AE",
        "items": [
          {
            "OID": "ITEMGROUPDATASEQ",
            "name": "ITEMGROUPDATASEQ",
            "label": "Record identifier",
            "type": "integer"
          },
          {
            "OID": "IT.SUPPAE.STUDYID",
            "name": "STUDYID",
            "label": "Study Identifier",
            "type": "string",
            "length": 12
          },
          {
            "OID": "IT.SUPPAE.RDOMAIN",
            "name": "RDOMAIN",
            "label": "Related Domain Abbreviation",
            "type": "string",
            "length": 2
          },
          {
            "OID": "IT.SUPPAE.USUBJID",
            "name": "USUBJID",
            "label": "Unique Subject Identifier",
            "type": "string",
            "length": 11
          },
          {
            "OID": "IT.SUPPAE.IDVAR",
            "name": "IDVAR",
            "label": "Identifying Variable",
            "type": "string",
            "length": 8
          },
          {
            "OID": "IT.SUPPAE.IDVARVAL",
            "name": "IDVARVAL",
            "label": "Identifying Variable Value",
            "type": "string",
            "length": 200
          },
          {
            "OID": "IT.SUPPAE.QNAM",
            "name": "QNAM",
            "label": "Qualifier Variable Name",
            "type": "string",
            "length": 8
          },
          {
            "OID": "IT.SUPPAE.QLABEL",
            "name": "QLABEL",
            "label": "Qualifier Variable Label",
            "type": "string",
            "length": 40
          },
          {
            "OID": "IT.SUPPAE.QVAL",
            "name": "QVAL",
            "label": "Data Value",
            "type": "string",
            "length": 200
          },
          {
            "OID": "IT.SUPPAE.QORIG",
            "name": "QORIG",
            "label": "Origin",
            "type": "string",
            "length": 200
          },
          {
            "OID": "IT.SUPPAE.QEVAL",
            "name": "QEVAL",
            "label": "Evaluator",
            "type": "string",
            "length": 200
          }
        ],
        "itemData": [
          [
            1,
            "CDISCPILOT01",
            "AE",
            "01-701-1015",
            "AESEQ",
            "1",
            "AETRTEM",
            "TREATMENT EMERGENT FLAG",
            "Y",
            "DERIVED",
            "CLINICAL STUDY SPONSOR"
          ],
          [
            2,
            "CDISCPILOT01",
            "AE",
            "01-701-1015",
            "AESEQ",
            "2",
            "AETRTEM",
            "TREATMENT EMERGENT FLAG",
            "Y",
            "DERIVED",
            "CLINICAL STUDY SPONSOR"
          ],
          [
            3,
            "CDISCPILOT01",
            "AE",
            "01-701-1015",
            "AESEQ",
            "3",
            "AETRTEM",
            "TREATMENT EMERGENT FLAG",
            "Y",
            "DERIVED",
            "CLINICAL STUDY SPONSOR"
          ],
          [
            4,
            "CDISCPILOT01",
            "AE",
            "01-701-1023",
            "AESEQ",
            "2",
            "AETRTEM",
            "TREATMENT EMERGENT FLAG",
            "Y",
            "DERIVED",
            "CLINICAL STUDY SPONSOR"
          ],
          [
            5,
            "CDISCPILOT01",
            "AE",
            "01-701-1023",
            "AESEQ",
            "3",
            "AETRTEM",
            "TREATMENT EMERGENT FLAG",
            "Y",
            "DERIVED",
            "CLINICAL STUDY SPONSOR"
          ],
          [
            6,
            "CDISCPILOT01",
            "AE",
            "01-701-1023",
            "AESEQ",
            "4",
            "AETRTEM",
            "TREATMENT EMERGENT FLAG",
            "Y",
            "DERIVED",
            "CLINICAL STUDY SPONSOR"
          ],
          [
            7,
            "CDISCPILOT01",
            "AE",
            "01-701-1028",
            "AESEQ",
            "1",
            "AETRTEM",
            "TREATMENT EMERGENT FLAG",
            "Y",
            "DERIVED",
            "CLINICAL STUDY SPONSOR"
          ],
          [
            8,
            "CDISCPILOT01",
            "AE",
            "01-701-1028",
            "AESEQ",
            "2",
            "AETRTEM",
            "TREATMENT EMERGENT FLAG",
            "Y",
            "DERIVED",
            "CLINICAL STUDY SPONSOR"
          ],
          [
            9,
            "CDISCPILOT01",
            "AE",
            "01-701-1034",
            "AESEQ",
            "1",
            "AETRTEM",
            "TREATMENT EMERGENT FLAG",
            "Y",
            "DERIVED",
            "CLINICAL STUDY SPONSOR"
          ],
          [
            10,
            "CDISCPILOT01",
            "AE",
            "01-701-1034",
            "AESEQ",
            "2",
            "AETRTEM",
            "TREATMENT EMERGENT FLAG",
            "Y",
            "DERIVED",
            "CLINICAL STUDY SPONSOR"
          ],
          [
            11,
            "CDISCPILOT01",
            "AE",
            "01-701-1047",
            "AESEQ",
            "2",
            "AETRTEM",
            "TREATMENT EMERGENT FLAG",
            "Y",
            "DERIVED",
            "CLINICAL STUDY SPONSOR"
          ],
          [
            12,
            "CDISCPILOT01",
            "AE",
            "01-701-1047",
            "AESEQ",
            "3",
            "AETRTEM",
            "TREATMENT EMERGENT FLAG",
            "Y",
            "DERIVED",
            "CLINICAL STUDY SPONSOR"
          ],
          [
            13,
            "CDISCPILOT01",
            "AE",
            "01-701-1047",
            "AESEQ",
            "4",
            "AETRTEM",
            "TREATMENT EMERGENT FLAG",
            "Y",
            "DERIVED",
            "CLINICAL STUDY SPONSOR"
          ],
          [
            14,
            "CDISCPILOT01",
            "AE",
            "01-701-1097",
            "AESEQ",
            "1",
            "AETRTEM",
            "TREATMENT EMERGENT FLAG",
            "Y",
            "DERIVED",
            "CLINICAL STUDY SPONSOR"
          ],
          [
            15,
            "CDISCPILOT01",
            "AE",
            "01-701-1097",
            "AESEQ",
            "10",
            "AETRTEM",
            "TREATMENT EMERGENT FLAG",
            "Y",
            "DERIVED",
            "CLINICAL STUDY SPONSOR"
          ],
          [
            16,
            "CDISCPILOT01",
            "AE",
            "01-701-1097",
            "AESEQ",
            "2",
            "AETRTEM",
            "TREATMENT EMERGENT FLAG",
            "Y",
            "DERIVED",
            "CLINICAL STUDY SPONSOR"
          ],
          [
            17,
            "CDISCPILOT01",
            "AE",
            "01-701-1097",
            "AESEQ",
            "3",
            "AETRTEM",
            "TREATMENT EMERGENT FLAG",
            "Y",
            "DERIVED",
            "CLINICAL STUDY SPONSOR"
          ],
          [
            18,
            "CDISCPILOT01",
            "AE",
            "01-701-1097",
            "AESEQ",
            "4",
            "AETRTEM",
            "TREATMENT EMERGENT FLAG",
            "Y",
            "DERIVED",
            "CLINICAL STUDY SPONSOR"
          ],
          [
            19,
            "CDISCPILOT01",
            "AE",
            "01-701-1097",
            "AESEQ",
            "5",
            "AETRTEM",
            "TREATMENT EMERGENT FLAG",
            "Y",
            "DERIVED",
            "CLINICAL STUDY SPONSOR"
          ],
          [
            20,
            "CDISCPILOT01",
            "AE",
            "01-701-1097",
            "AESEQ",
            "6",
            "AETRTEM",
            "TREATMENT EMERGENT FLAG",
            "Y",
            "DERIVED",
            "CLINICAL STUDY SPONSOR"
          ],
          [
            21,
            "CDISCPILOT01",
            "AE",
            "01-701-1097",
            "AESEQ",
            "7",
            "AETRTEM",
            "TREATMENT EMERGENT FLAG",
            "Y",
            "DERIVED",
            "CLINICAL STUDY SPONSOR"
          ],
          [
            22,
            "CDISCPILOT01",
            "AE",
            "01-701-1097",
            "AESEQ",
            "8",
            "AETRTEM",
            "TREATMENT EMERGENT FLAG",
            "Y",
            "DERIVED",
            "CLINICAL STUDY SPONSOR"
          ],
          [
            23,
            "CDISCPILOT01",
            "AE",
            "01-701-1097",
            "AESEQ",
            "9",
            "AETRTEM",
            "TREATMENT EMERGENT FLAG",
            "Y",
            "DERIVED",
            "CLINICAL STUDY SPONSOR"
          ],
          [
            24,
            "CDISCPILOT01",
            "AE",
            "01-701-1111",
            "AESEQ",
            "3",
            "AETRTEM",
            "TREATMENT EMERGENT FLAG",
            "N",
            "DERIVED",
            "CLINICAL STUDY SPONSOR"
          ],
          [
            25,
            "CDISCPILOT01",
            "AE",
            "01-701-1111",
            "AESEQ",
            "4",
            "AETRTEM",
            "TREATMENT EMERGENT FLAG",
            "N",
            "DERIVED",
            "CLINICAL STUDY SPONSOR"
          ],
          [
            26,
            "CDISCPILOT01",
            "AE",
            "01-701-1111",
            "AESEQ",
            "5",
            "AETRTEM",
            "TREATMENT EMERGENT FLAG",
            "N",
            "DERIVED",
            "CLINICAL STUDY SPONSOR"
          ],
          [
            27,
            "CDISCPILOT01",
            "AE",
            "01-701-1111",
            "AESEQ",
            "6",
            "AETRTEM",
            "TREATMENT EMERGENT FLAG",
            "Y",
            "DERIVED",
            "CLINICAL STUDY SPONSOR"
          ],
          [
            28,
            "CDISCPILOT01",
            "AE",
            "01-701-1111",
            "AESEQ",
            "7",
            "AETRTEM",
            "TREATMENT EMERGENT FLAG",
            "Y",
            "DERIVED",
            "CLINICAL STUDY SPONSOR"
          ],
          [
            29,
            "CDISCPILOT01",
            "AE",
            "01-701-1111",
            "AESEQ",
            "8",
            "AETRTEM",
            "TREATMENT EMERGENT FLAG",
            "Y",
            "DERIVED",
            "CLINICAL STUDY SPONSOR"
          ],
          [
            30,
            "CDISCPILOT01",
            "AE",
            "01-701-1115",
            "AESEQ",
            "1",
            "AETRTEM",
            "TREATMENT EMERGENT FLAG",
            "Y",
            "DERIVED",
            "CLINICAL STUDY SPONSOR"
          ],
          [
            31,
            "CDISCPILOT01",
            "AE",
            "01-701-1115",
            "AESEQ",
            "2",
            "AETRTEM",
            "TREATMENT EMERGENT FLAG",
            "Y",
            "DERIVED",
            "CLINICAL STUDY SPONSOR"
          ],
          [
            32,
            "CDISCPILOT01",
            "AE",
            "01-701-1115",
            "AESEQ",
            "4",
            "AETRTEM",
            "TREATMENT EMERGENT FLAG",
            "Y",
            "DERIVED",
            "CLINICAL STUDY SPONSOR"
          ],
          [
            33,
            "CDISCPILOT01",
            "AE",
            "01-701-1115",
            "AESEQ",
            "5",
            "AETRTEM",
            "TREATMENT EMERGENT FLAG",
            "Y",
            "DERIVED",
            "CLINICAL STUDY SPONSOR"
          ],
          [
            34,
            "CDISCPILOT01",
            "AE",
            "01-701-1115",
            "AESEQ",
            "6",
            "AETRTEM",
            "TREATMENT EMERGENT FLAG",
            "Y",
            "DERIVED",
            "CLINICAL STUDY SPONSOR"
          ],
          [
            35,
            "CDISCPILOT01",
            "AE",
            "01-701-1115",
            "AESEQ",
            "7",
            "AETRTEM",
            "TREATMENT EMERGENT FLAG",
            "Y",
            "DERIVED",
            "CLINICAL STUDY SPONSOR"
          ],
          [
            36,
            "CDISCPILOT01",
            "AE",
            "01-701-1115",
            "AESEQ",
            "8",
            "AETRTEM",
            "TREATMENT EMERGENT FLAG",
            "Y",
            "DERIVED",
            "CLINICAL STUDY SPONSOR"
          ],
          [
            37,
            "CDISCPILOT01",
            "AE",
            "01-701-1115",
            "AESEQ",
            "9",
            "AETRTEM",
            "TREATMENT EMERGENT FLAG",
            "Y",
            "DERIVED",
            "CLINICAL STUDY SPONSOR"
          ],
          [
            38,
            "CDISCPILOT01",
            "AE",
            "01-701-1118",
            "AESEQ",
            "1",
            "AETRTEM",
            "TREATMENT EMERGENT FLAG",
            "N",
            "DERIVED",
            "CLINICAL STUDY SPONSOR"
          ],
          [
            39,
            "CDISCPILOT01",
            "AE",
            "01-701-1130",
            "AESEQ",
            "2",
            "AETRTEM",
            "TREATMENT EMERGENT FLAG",
            "Y",
            "DERIVED",
            "CLINICAL STUDY SPONSOR"
          ],
          [
            40,
            "CDISCPILOT01",
            "AE",
            "01-701-1130",
            "AESEQ",
            "3",
            "AETRTEM",
            "TREATMENT EMERGENT FLAG",
            "Y",
            "DERIVED",
            "CLINICAL STUDY SPONSOR"
          ],
          [
            41,
            "CDISCPILOT01",
            "AE",
            "01-701-1130",
            "AESEQ",
            "4",
            "AETRTEM",
            "TREATMENT EMERGENT FLAG",
            "Y",
            "DERIVED",
            "CLINICAL STUDY SPONSOR"
          ],
          [
            42,
            "CDISCPILOT01",
            "AE",
            "01-701-1130",
            "AESEQ",
            "5",
            "AETRTEM",
            "TREATMENT EMERGENT FLAG",
            "Y",
            "DERIVED",
            "CLINICAL STUDY SPONSOR"
          ],
          [
            43,
            "CDISCPILOT01",
            "AE",
            "01-701-1130",
            "AESEQ",
            "6",
            "AETRTEM",
            "TREATMENT EMERGENT FLAG",
            "Y",
            "DERIVED",
            "CLINICAL STUDY SPONSOR"
          ],
          [
            44,
            "CDISCPILOT01",
            "AE",
            "01-701-1130",
            "AESEQ",
            "7",
            "AETRTEM",
            "TREATMENT EMERGENT FLAG",
            "Y",
            "DERIVED",
            "CLINICAL STUDY SPONSOR"
          ],
          [
            45,
            "CDISCPILOT01",
            "AE",
            "01-701-1130",
            "AESEQ",
            "8",
            "AETRTEM",
            "TREATMENT EMERGENT FLAG",
            "Y",
            "DERIVED",
            "CLINICAL STUDY SPONSOR"
          ],
          [
            46,
            "CDISCPILOT01",
            "AE",
            "01-701-1133",
            "AESEQ",
            "1",
            "AETRTEM",
            "TREATMENT EMERGENT FLAG",
            "Y",
            "DERIVED",
            "CLINICAL STUDY SPONSOR"
          ],
          [
            47,
            "CDISCPILOT01",
            "AE",
            "01-701-1133",
            "AESEQ",
            "2",
            "AETRTEM",
            "TREATMENT EMERGENT FLAG",
            "Y",
            "DERIVED",
            "CLINICAL STUDY SPONSOR"
          ],
          [
            48,
            "CDISCPILOT01",
            "AE",
            "01-701-1133",
            "AESEQ",
            "3",
            "AETRTEM",
            "TREATMENT EMERGENT FLAG",
            "Y",
            "DERIVED",
            "CLINICAL STUDY SPONSOR"
          ],
          [
            49,
            "CDISCPILOT01",
            "AE",
            "01-701-1133",
            "AESEQ",
            "4",
            "AETRTEM",
            "TREATMENT EMERGENT FLAG",
            "Y",
            "DERIVED",
            "CLINICAL STUDY SPONSOR"
          ],
          [
            50,
            "CDISCPILOT01",
            "AE",
            "01-701-1146",
            "AESEQ",
            "10",
            "AETRTEM",
            "TREATMENT EMERGENT FLAG",
            "Y",
            "DERIVED",
            "CLINICAL STUDY SPONSOR"
          ],
          [
            51,
            "CDISCPILOT01",
            "AE",
            "01-701-1146",
            "AESEQ",
            "11",
            "AETRTEM",
            "TREATMENT EMERGENT FLAG",
            "Y",
            "DERIVED",
            "CLINICAL STUDY SPONSOR"
          ],
          [
            52,
            "CDISCPILOT01",
            "AE",
            "01-701-1146",
            "AESEQ",
            "2",
            "AETRTEM",
            "TREATMENT EMERGENT FLAG",
            "N",
            "DERIVED",
            "CLINICAL STUDY SPONSOR"
          ],
          [
            53,
            "CDISCPILOT01",
            "AE",
            "01-701-1146",
            "AESEQ",
            "3",
            "AETRTEM",
            "TREATMENT EMERGENT FLAG",
            "Y",
            "DERIVED",
            "CLINICAL STUDY SPONSOR"
          ],
          [
            54,
            "CDISCPILOT01",
            "AE",
            "01-701-1146",
            "AESEQ",
            "4",
            "AETRTEM",
            "TREATMENT EMERGENT FLAG",
            "Y",
            "DERIVED",
            "CLINICAL STUDY SPONSOR"
          ],
          [
            55,
            "CDISCPILOT01",
            "AE",
            "01-701-1146",
            "AESEQ",
            "5",
            "AETRTEM",
            "TREATMENT EMERGENT FLAG",
            "Y",
            "DERIVED",
            "CLINICAL STUDY SPONSOR"
          ],
          [
            56,
            "CDISCPILOT01",
            "AE",
            "01-701-1146",
            "AESEQ",
            "6",
            "AETRTEM",
            "TREATMENT EMERGENT FLAG",
            "Y",
            "DERIVED",
            "CLINICAL STUDY SPONSOR"
          ],
          [
            57,
            "CDISCPILOT01",
            "AE",
            "01-701-1146",
            "AESEQ",
            "7",
            "AETRTEM",
            "TREATMENT EMERGENT FLAG",
            "Y",
            "DERIVED",
            "CLINICAL STUDY SPONSOR"
          ],
          [
            58,
            "CDISCPILOT01",
            "AE",
            "01-701-1146",
            "AESEQ",
            "8",
            "AETRTEM",
            "TREATMENT EMERGENT FLAG",
            "Y",
            "DERIVED",
            "CLINICAL STUDY SPONSOR"
          ],
          [
            59,
            "CDISCPILOT01",
            "AE",
            "01-701-1146",
            "AESEQ",
            "9",
            "AETRTEM",
            "TREATMENT EMERGENT FLAG",
            "Y",
            "DERIVED",
            "CLINICAL STUDY SPONSOR"
          ],
          [
            60,
            "CDISCPILOT01",
            "AE",
            "01-701-1148",
            "AESEQ",
            "1",
            "AETRTEM",
            "TREATMENT EMERGENT FLAG",
            "Y",
            "DERIVED",
            "CLINICAL STUDY SPONSOR"
          ],
          [
            61,
            "CDISCPILOT01",
            "AE",
            "01-701-1148",
            "AESEQ",
            "10",
            "AETRTEM",
            "TREATMENT EMERGENT FLAG",
            "Y",
            "DERIVED",
            "CLINICAL STUDY SPONSOR"
          ],
          [
            62,
            "CDISCPILOT01",
            "AE",
            "01-701-1148",
            "AESEQ",
            "2",
            "AETRTEM",
            "TREATMENT EMERGENT FLAG",
            "Y",
            "DERIVED",
            "CLINICAL STUDY SPONSOR"
          ],
          [
            63,
            "CDISCPILOT01",
            "AE",
            "01-701-1148",
            "AESEQ",
            "4",
            "AETRTEM",
            "TREATMENT EMERGENT FLAG",
            "Y",
            "DERIVED",
            "CLINICAL STUDY SPONSOR"
          ],
          [
            64,
            "CDISCPILOT01",
            "AE",
            "01-701-1148",
            "AESEQ",
            "5",
            "AETRTEM",
            "TREATMENT EMERGENT FLAG",
            "Y",
            "DERIVED",
            "CLINICAL STUDY SPONSOR"
          ],
          [
            65,
            "CDISCPILOT01",
            "AE",
            "01-701-1148",
            "AESEQ",
            "6",
            "AETRTEM",
            "TREATMENT EMERGENT FLAG",
            "Y",
            "DERIVED",
            "CLINICAL STUDY SPONSOR"
          ],
          [
            66,
            "CDISCPILOT01",
            "AE",
            "01-701-1148",
            "AESEQ",
            "7",
            "AETRTEM",
            "TREATMENT EMERGENT FLAG",
            "Y",
            "DERIVED",
            "CLINICAL STUDY SPONSOR"
          ],
          [
            67,
            "CDISCPILOT01",
            "AE",
            "01-701-1148",
            "AESEQ",
            "8",
            "AETRTEM",
            "TREATMENT EMERGENT FLAG",
            "N",
            "DERIVED",
            "CLINICAL STUDY SPONSOR"
          ],
          [
            68,
            "CDISCPILOT01",
            "AE",
            "01-701-1148",
            "AESEQ",
            "9",
            "AETRTEM",
            "TREATMENT EMERGENT FLAG",
            "N",
            "DERIVED",
            "CLINICAL STUDY SPONSOR"
          ],
          [
            69,
            "CDISCPILOT01",
            "AE",
            "01-701-1153",
            "AESEQ",
            "2",
            "AETRTEM",
            "TREATMENT EMERGENT FLAG",
            "Y",
            "DERIVED",
            "CLINICAL STUDY SPONSOR"
          ],
          [
            70,
            "CDISCPILOT01",
            "AE",
            "01-701-1180",
            "AESEQ",
            "2",
            "AETRTEM",
            "TREATMENT EMERGENT FLAG",
            "Y",
            "DERIVED",
            "CLINICAL STUDY SPONSOR"
          ],
          [
            71,
            "CDISCPILOT01",
            "AE",
            "01-701-1180",
            "AESEQ",
            "4",
            "AETRTEM",
            "TREATMENT EMERGENT FLAG",
            "N",
            "DERIVED",
            "CLINICAL STUDY SPONSOR"
          ],
          [
            72,
            "CDISCPILOT01",
            "AE",
            "01-701-1180",
            "AESEQ",
            "5",
            "AETRTEM",
            "TREATMENT EMERGENT FLAG",
            "Y",
            "DERIVED",
            "CLINICAL STUDY SPONSOR"
          ],
          [
            73,
            "CDISCPILOT01",
            "AE",
            "01-701-1180",
            "AESEQ",
            "6",
            "AETRTEM",
            "TREATMENT EMERGENT FLAG",
            "Y",
            "DERIVED",
            "CLINICAL STUDY SPONSOR"
          ],
          [
            74,
            "CDISCPILOT01",
            "AE",
            "01-701-1180",
            "AESEQ",
            "7",
            "AETRTEM",
            "TREATMENT EMERGENT FLAG",
            "Y",
            "DERIVED",
            "CLINICAL STUDY SPONSOR"
          ],
          [
            75,
            "CDISCPILOT01",
            "AE",
            "01-701-1180",
            "AESEQ",
            "8",
            "AETRTEM",
            "TREATMENT EMERGENT FLAG",
            "Y",
            "DERIVED",
            "CLINICAL STUDY SPONSOR"
          ],
          [
            76,
            "CDISCPILOT01",
            "AE",
            "01-701-1180",
            "AESEQ",
            "9",
            "AETRTEM",
            "TREATMENT EMERGENT FLAG",
            "Y",
            "DERIVED",
            "CLINICAL STUDY SPONSOR"
          ],
          [
            77,
            "CDISCPILOT01",
            "AE",
            "01-701-1181",
            "AESEQ",
            "1",
            "AETRTEM",
            "TREATMENT EMERGENT FLAG",
            "Y",
            "DERIVED",
            "CLINICAL STUDY SPONSOR"
          ],
          [
            78,
            "CDISCPILOT01",
            "AE",
            "01-701-1188",
            "AESEQ",
            "1",
            "AETRTEM",
            "TREATMENT EMERGENT FLAG",
            "Y",
            "DERIVED",
            "CLINICAL STUDY SPONSOR"
          ],
          [
            79,
            "CDISCPILOT01",
            "AE",
            "01-701-1188",
            "AESEQ",
            "2",
            "AETRTEM",
            "TREATMENT EMERGENT FLAG",
            "Y",
            "DERIVED",
            "CLINICAL STUDY SPONSOR"
          ],
          [
            80,
            "CDISCPILOT01",
            "AE",
            "01-701-1188",
            "AESEQ",
            "3",
            "AETRTEM",
            "TREATMENT EMERGENT FLAG",
            "Y",
            "DERIVED",
            "CLINICAL STUDY SPONSOR"
          ],
          [
            81,
            "CDISCPILOT01",
            "AE",
            "01-701-1188",
            "AESEQ",
            "4",
            "AETRTEM",
            "TREATMENT EMERGENT FLAG",
            "Y",
            "DERIVED",
            "CLINICAL STUDY SPONSOR"
          ],
          [
            82,
            "CDISCPILOT01",
            "AE",
            "01-701-1188",
            "AESEQ",
            "5",
            "AETRTEM",
            "TREATMENT EMERGENT FLAG",
            "Y",
            "DERIVED",
            "CLINICAL STUDY SPONSOR"
          ],
          [
            83,
            "CDISCPILOT01",
            "AE",
            "01-701-1188",
            "AESEQ",
            "6",
            "AETRTEM",
            "TREATMENT EMERGENT FLAG",
            "Y",
            "DERIVED",
            "CLINICAL STUDY SPONSOR"
          ],
          [
            84,
            "CDISCPILOT01",
            "AE",
            "01-701-1188",
            "AESEQ",
            "7",
            "AETRTEM",
            "TREATMENT EMERGENT FLAG",
            "Y",
            "DERIVED",
            "CLINICAL STUDY SPONSOR"
          ],
          [
            85,
            "CDISCPILOT01",
            "AE",
            "01-701-1188",
            "AESEQ",
            "8",
            "AETRTEM",
            "TREATMENT EMERGENT FLAG",
            "Y",
            "DERIVED",
            "CLINICAL STUDY SPONSOR"
          ],
          [
            86,
            "CDISCPILOT01",
            "AE",
            "01-701-1192",
            "AESEQ",
            "1",
            "AETRTEM",
            "TREATMENT EMERGENT FLAG",
            "Y",
            "DERIVED",
            "CLINICAL STUDY SPONSOR"
          ],
          [
            87,
            "CDISCPILOT01",
            "AE",
            "01-701-1192",
            "AESEQ",
            "10",
            "AETRTEM",
            "TREATMENT EMERGENT FLAG",
            "Y",
            "DERIVED",
            "CLINICAL STUDY SPONSOR"
          ],
          [
            88,
            "CDISCPILOT01",
            "AE",
            "01-701-1192",
            "AESEQ",
            "11",
            "AETRTEM",
            "TREATMENT EMERGENT FLAG",
            "Y",
            "DERIVED",
            "CLINICAL STUDY SPONSOR"
          ],
          [
            89,
            "CDISCPILOT01",
            "AE",
            "01-701-1192",
            "AESEQ",
            "13",
            "AETRTEM",
            "TREATMENT EMERGENT FLAG",
            "Y",
            "DERIVED",
            "CLINICAL STUDY SPONSOR"
          ],
          [
            90,
            "CDISCPILOT01",
            "AE",
            "01-701-1192",
            "AESEQ",
            "14",
            "AETRTEM",
            "TREATMENT EMERGENT FLAG",
            "Y",
            "DERIVED",
            "CLINICAL STUDY SPONSOR"
          ],
          [
            91,
            "CDISCPILOT01",
            "AE",
            "01-701-1192",
            "AESEQ",
            "15",
            "AETRTEM",
            "TREATMENT EMERGENT FLAG",
            "Y",
            "DERIVED",
            "CLINICAL STUDY SPONSOR"
          ],
          [
            92,
            "CDISCPILOT01",
            "AE",
            "01-701-1192",
            "AESEQ",
            "4",
            "AETRTEM",
            "TREATMENT EMERGENT FLAG",
            "N",
            "DERIVED",
            "CLINICAL STUDY SPONSOR"
          ],
          [
            93,
            "CDISCPILOT01",
            "AE",
            "01-701-1192",
            "AESEQ",
            "5",
            "AETRTEM",
            "TREATMENT EMERGENT FLAG",
            "Y",
            "DERIVED",
            "CLINICAL STUDY SPONSOR"
          ],
          [
            94,
            "CDISCPILOT01",
            "AE",
            "01-701-1192",
            "AESEQ",
            "6",
            "AETRTEM",
            "TREATMENT EMERGENT FLAG",
            "Y",
            "DERIVED",
            "CLINICAL STUDY SPONSOR"
          ],
          [
            95,
            "CDISCPILOT01",
            "AE",
            "01-701-1192",
            "AESEQ",
            "9",
            "AETRTEM",
            "TREATMENT EMERGENT FLAG",
            "N",
            "DERIVED",
            "CLINICAL STUDY SPONSOR"
          ],
          [
            96,
            "CDISCPILOT01",
            "AE",
            "01-701-1203",
            "AESEQ",
            "1",
            "AETRTEM",
            "TREATMENT EMERGENT FLAG",
            "Y",
            "DERIVED",
            "CLINICAL STUDY SPONSOR"
          ],
          [
            97,
            "CDISCPILOT01",
            "AE",
            "01-701-1211",
            "AESEQ",
            "1",
            "AETRTEM",
            "TREATMENT EMERGENT FLAG",
            "Y",
            "DERIVED",
            "CLINICAL STUDY SPONSOR"
          ],
          [
            98,
            "CDISCPILOT01",
            "AE",
            "01-701-1211",
            "AESEQ",
            "2",
            "AETRTEM",
            "TREATMENT EMERGENT FLAG",
            "Y",
            "DERIVED",
            "CLINICAL STUDY SPONSOR"
          ],
          [
            99,
            "CDISCPILOT01",
            "AE",
            "01-701-1211",
            "AESEQ",
            "3",
            "AETRTEM",
            "TREATMENT EMERGENT FLAG",
            "Y",
            "DERIVED",
            "CLINICAL STUDY SPONSOR"
          ],
          [
            100,
            "CDISCPILOT01",
            "AE",
            "01-701-1211",
            "AESEQ",
            "4",
            "AETRTEM",
            "TREATMENT EMERGENT FLAG",
            "Y",
            "DERIVED",
            "CLINICAL STUDY SPONSOR"
          ],
          [
            101,
            "CDISCPILOT01",
            "AE",
            "01-701-1211",
            "AESEQ",
            "5",
            "AETRTEM",
            "TREATMENT EMERGENT FLAG",
            "Y",
            "DERIVED",
            "CLINICAL STUDY SPONSOR"
          ],
          [
            102,
            "CDISCPILOT01",
            "AE",
            "01-701-1211",
            "AESEQ",
            "6",
            "AETRTEM",
            "TREATMENT EMERGENT FLAG",
            "Y",
            "DERIVED",
            "CLINICAL STUDY SPONSOR"
          ],
          [
            103,
            "CDISCPILOT01",
            "AE",
            "01-701-1211",
            "AESEQ",
            "7",
            "AETRTEM",
            "TREATMENT EMERGENT FLAG",
            "Y",
            "DERIVED",
            "CLINICAL STUDY SPONSOR"
          ],
          [
            104,
            "CDISCPILOT01",
            "AE",
            "01-701-1211",
            "AESEQ",
            "8",
            "AETRTEM",
            "TREATMENT EMERGENT FLAG",
            "Y",
            "DERIVED",
            "CLINICAL STUDY SPONSOR"
          ],
          [
            105,
            "CDISCPILOT01",
            "AE",
            "01-701-1211",
            "AESEQ",
            "9",
            "AETRTEM",
            "TREATMENT EMERGENT FLAG",
            "Y",
            "DERIVED",
            "CLINICAL STUDY SPONSOR"
          ],
          [
            106,
            "CDISCPILOT01",
            "AE",
            "01-701-1239",
            "AESEQ",
            "1",
            "AETRTEM",
            "TREATMENT EMERGENT FLAG",
            "Y",
            "DERIVED",
            "CLINICAL STUDY SPONSOR"
          ],
          [
            107,
            "CDISCPILOT01",
            "AE",
            "01-701-1239",
            "AESEQ",
            "10",
            "AETRTEM",
            "TREATMENT EMERGENT FLAG",
            "Y",
            "DERIVED",
            "CLINICAL STUDY SPONSOR"
          ],
          [
            108,
            "CDISCPILOT01",
            "AE",
            "01-701-1239",
            "AESEQ",
            "2",
            "AETRTEM",
            "TREATMENT EMERGENT FLAG",
            "Y",
            "DERIVED",
            "CLINICAL STUDY SPONSOR"
          ],
          [
            109,
            "CDISCPILOT01",
            "AE",
            "01-701-1239",
            "AESEQ",
            "3",
            "AETRTEM",
            "TREATMENT EMERGENT FLAG",
            "Y",
            "DERIVED",
            "CLINICAL STUDY SPONSOR"
          ],
          [
            110,
            "CDISCPILOT01",
            "AE",
            "01-701-1239",
            "AESEQ",
            "5",
            "AETRTEM",
            "TREATMENT EMERGENT FLAG",
            "Y",
            "DERIVED",
            "CLINICAL STUDY SPONSOR"
          ],
          [
            111,
            "CDISCPILOT01",
            "AE",
            "01-701-1239",
            "AESEQ",
            "6",
            "AETRTEM",
            "TREATMENT EMERGENT FLAG",
            "Y",
            "DERIVED",
            "CLINICAL STUDY SPONSOR"
          ],
          [
            112,
            "CDISCPILOT01",
            "AE",
            "01-701-1239",
            "AESEQ",
            "8",
            "AETRTEM",
            "TREATMENT EMERGENT FLAG",
            "Y",
            "DERIVED",
            "CLINICAL STUDY SPONSOR"
          ],
          [
            113,
            "CDISCPILOT01",
            "AE",
            "01-701-1239",
            "AESEQ",
            "9",
            "AETRTEM",
            "TREATMENT EMERGENT FLAG",
            "Y",
            "DERIVED",
            "CLINICAL STUDY SPONSOR"
          ],
          [
            114,
            "CDISCPILOT01",
            "AE",
            "01-701-1275",
            "AESEQ",
            "10",
            "AETRTEM",
            "TREATMENT EMERGENT FLAG",
            "Y",
            "DERIVED",
            "CLINICAL STUDY SPONSOR"
          ],
          [
            115,
            "CDISCPILOT01",
            "AE",
            "01-701-1275",
            "AESEQ",
            "11",
            "AETRTEM",
            "TREATMENT EMERGENT FLAG",
            "Y",
            "DERIVED",
            "CLINICAL STUDY SPONSOR"
          ],
          [
            116,
            "CDISCPILOT01",
            "AE",
            "01-701-1275",
            "AESEQ",
            "12",
            "AETRTEM",
            "TREATMENT EMERGENT FLAG",
            "Y",
            "DERIVED",
            "CLINICAL STUDY SPONSOR"
          ],
          [
            117,
            "CDISCPILOT01",
            "AE",
            "01-701-1275",
            "AESEQ",
            "13",
            "AETRTEM",
            "TREATMENT EMERGENT FLAG",
            "Y",
            "DERIVED",
            "CLINICAL STUDY SPONSOR"
          ],
          [
            118,
            "CDISCPILOT01",
            "AE",
            "01-701-1275",
            "AESEQ",
            "14",
            "AETRTEM",
            "TREATMENT EMERGENT FLAG",
            "Y",
            "DERIVED",
            "CLINICAL STUDY SPONSOR"
          ],
          [
            119,
            "CDISCPILOT01",
            "AE",
            "01-701-1275",
            "AESEQ",
            "15",
            "AETRTEM",
            "TREATMENT EMERGENT FLAG",
            "Y",
            "DERIVED",
            "CLINICAL STUDY SPONSOR"
          ],
          [
            120,
            "CDISCPILOT01",
            "AE",
            "01-701-1275",
            "AESEQ",
            "2",
            "AETRTEM",
            "TREATMENT EMERGENT FLAG",
            "Y",
            "DERIVED",
            "CLINICAL STUDY SPONSOR"
          ],
          [
            121,
            "CDISCPILOT01",
            "AE",
            "01-701-1275",
            "AESEQ",
            "9",
            "AETRTEM",
            "TREATMENT EMERGENT FLAG",
            "Y",
            "DERIVED",
            "CLINICAL STUDY SPONSOR"
          ],
          [
            122,
            "CDISCPILOT01",
            "AE",
            "01-701-1287",
            "AESEQ",
            "1",
            "AETRTEM",
            "TREATMENT EMERGENT FLAG",
            "Y",
            "DERIVED",
            "CLINICAL STUDY SPONSOR"
          ],
          [
            123,
            "CDISCPILOT01",
            "AE",
            "01-701-1287",
            "AESEQ",
            "2",
            "AETRTEM",
            "TREATMENT EMERGENT FLAG",
            "Y",
            "DERIVED",
            "CLINICAL STUDY SPONSOR"
          ],
          [
            124,
            "CDISCPILOT01",
            "AE",
            "01-701-1287",
            "AESEQ",
            "3",
            "AETRTEM",
            "TREATMENT EMERGENT FLAG",
            "Y",
            "DERIVED",
            "CLINICAL STUDY SPONSOR"
          ],
          [
            125,
            "CDISCPILOT01",
            "AE",
            "01-701-1287",
            "AESEQ",
            "5",
            "AETRTEM",
            "TREATMENT EMERGENT FLAG",
            "Y",
            "DERIVED",
            "CLINICAL STUDY SPONSOR"
          ],
          [
            126,
            "CDISCPILOT01",
            "AE",
            "01-701-1294",
            "AESEQ",
            "1",
            "AETRTEM",
            "TREATMENT EMERGENT FLAG",
            "N",
            "DERIVED",
            "CLINICAL STUDY SPONSOR"
          ],
          [
            127,
            "CDISCPILOT01",
            "AE",
            "01-701-1294",
            "AESEQ",
            "2",
            "AETRTEM",
            "TREATMENT EMERGENT FLAG",
            "Y",
            "DERIVED",
            "CLINICAL STUDY SPONSOR"
          ],
          [
            128,
            "CDISCPILOT01",
            "AE",
            "01-701-1294",
            "AESEQ",
            "3",
            "AETRTEM",
            "TREATMENT EMERGENT FLAG",
            "Y",
            "DERIVED",
            "CLINICAL STUDY SPONSOR"
          ],
          [
            129,
            "CDISCPILOT01",
            "AE",
            "01-701-1294",
            "AESEQ",
            "4",
            "AETRTEM",
            "TREATMENT EMERGENT FLAG",
            "Y",
            "DERIVED",
            "CLINICAL STUDY SPONSOR"
          ],
          [
            130,
            "CDISCPILOT01",
            "AE",
            "01-701-1294",
            "AESEQ",
            "5",
            "AETRTEM",
            "TREATMENT EMERGENT FLAG",
            "Y",
            "DERIVED",
            "CLINICAL STUDY SPONSOR"
          ],
          [
            131,
            "CDISCPILOT01",
            "AE",
            "01-701-1294",
            "AESEQ",
            "6",
            "AETRTEM",
            "TREATMENT EMERGENT FLAG",
            "Y",
            "DERIVED",
            "CLINICAL STUDY SPONSOR"
          ],
          [
            132,
            "CDISCPILOT01",
            "AE",
            "01-701-1302",
            "AESEQ",
            "1",
            "AETRTEM",
            "TREATMENT EMERGENT FLAG",
            "Y",
            "DERIVED",
            "CLINICAL STUDY SPONSOR"
          ],
          [
            133,
            "CDISCPILOT01",
            "AE",
            "01-701-1302",
            "AESEQ",
            "10",
            "AETRTEM",
            "TREATMENT EMERGENT FLAG",
            "Y",
            "DERIVED",
            "CLINICAL STUDY SPONSOR"
          ],
          [
            134,
            "CDISCPILOT01",
            "AE",
            "01-701-1302",
            "AESEQ",
            "11",
            "AETRTEM",
            "TREATMENT EMERGENT FLAG",
            "Y",
            "DERIVED",
            "CLINICAL STUDY SPONSOR"
          ],
          [
            135,
            "CDISCPILOT01",
            "AE",
            "01-701-1302",
            "AESEQ",
            "13",
            "AETRTEM",
            "TREATMENT EMERGENT FLAG",
            "Y",
            "DERIVED",
            "CLINICAL STUDY SPONSOR"
          ],
          [
            136,
            "CDISCPILOT01",
            "AE",
            "01-701-1302",
            "AESEQ",
            "14",
            "AETRTEM",
            "TREATMENT EMERGENT FLAG",
            "Y",
            "DERIVED",
            "CLINICAL STUDY SPONSOR"
          ],
          [
            137,
            "CDISCPILOT01",
            "AE",
            "01-701-1302",
            "AESEQ",
            "15",
            "AETRTEM",
            "TREATMENT EMERGENT FLAG",
            "Y",
            "DERIVED",
            "CLINICAL STUDY SPONSOR"
          ],
          [
            138,
            "CDISCPILOT01",
            "AE",
            "01-701-1302",
            "AESEQ",
            "16",
            "AETRTEM",
            "TREATMENT EMERGENT FLAG",
            "Y",
            "DERIVED",
            "CLINICAL STUDY SPONSOR"
          ],
          [
            139,
            "CDISCPILOT01",
            "AE",
            "01-701-1302",
            "AESEQ",
            "17",
            "AETRTEM",
            "TREATMENT EMERGENT FLAG",
            "Y",
            "DERIVED",
            "CLINICAL STUDY SPONSOR"
          ],
          [
            140,
            "CDISCPILOT01",
            "AE",
            "01-701-1302",
            "AESEQ",
            "18",
            "AETRTEM",
            "TREATMENT EMERGENT FLAG",
            "Y",
            "DERIVED",
            "CLINICAL STUDY SPONSOR"
          ],
          [
            141,
            "CDISCPILOT01",
            "AE",
            "01-701-1302",
            "AESEQ",
            "19",
            "AETRTEM",
            "TREATMENT EMERGENT FLAG",
            "Y",
            "DERIVED",
            "CLINICAL STUDY SPONSOR"
          ],
          [
            142,
            "CDISCPILOT01",
            "AE",
            "01-701-1302",
            "AESEQ",
            "2",
            "AETRTEM",
            "TREATMENT EMERGENT FLAG",
            "Y",
            "DERIVED",
            "CLINICAL STUDY SPONSOR"
          ],
          [
            143,
            "CDISCPILOT01",
            "AE",
            "01-701-1302",
            "AESEQ",
            "20",
            "AETRTEM",
            "TREATMENT EMERGENT FLAG",
            "Y",
            "DERIVED",
            "CLINICAL STUDY SPONSOR"
          ],
          [
            144,
            "CDISCPILOT01",
            "AE",
            "01-701-1302",
            "AESEQ",
            "21",
            "AETRTEM",
            "TREATMENT EMERGENT FLAG",
            "Y",
            "DERIVED",
            "CLINICAL STUDY SPONSOR"
          ],
          [
            145,
            "CDISCPILOT01",
            "AE",
            "01-701-1302",
            "AESEQ",
            "22",
            "AETRTEM",
            "TREATMENT EMERGENT FLAG",
            "Y",
            "DERIVED",
            "CLINICAL STUDY SPONSOR"
          ],
          [
            146,
            "CDISCPILOT01",
            "AE",
            "01-701-1302",
            "AESEQ",
            "23",
            "AETRTEM",
            "TREATMENT EMERGENT FLAG",
            "Y",
            "DERIVED",
            "CLINICAL STUDY SPONSOR"
          ],
          [
            147,
            "CDISCPILOT01",
            "AE",
            "01-701-1302",
            "AESEQ",
            "3",
            "AETRTEM",
            "TREATMENT EMERGENT FLAG",
            "Y",
            "DERIVED",
            "CLINICAL STUDY SPONSOR"
          ],
          [
            148,
            "CDISCPILOT01",
            "AE",
            "01-701-1302",
            "AESEQ",
            "4",
            "AETRTEM",
            "TREATMENT EMERGENT FLAG",
            "Y",
            "DERIVED",
            "CLINICAL STUDY SPONSOR"
          ],
          [
            149,
            "CDISCPILOT01",
            "AE",
            "01-701-1302",
            "AESEQ",
            "5",
            "AETRTEM",
            "TREATMENT EMERGENT FLAG",
            "Y",
            "DERIVED",
            "CLINICAL STUDY SPONSOR"
          ],
          [
            150,
            "CDISCPILOT01",
            "AE",
            "01-701-1302",
            "AESEQ",
            "6",
            "AETRTEM",
            "TREATMENT EMERGENT FLAG",
            "Y",
            "DERIVED",
            "CLINICAL STUDY SPONSOR"
          ],
          [
            151,
            "CDISCPILOT01",
            "AE",
            "01-701-1302",
            "AESEQ",
            "7",
            "AETRTEM",
            "TREATMENT EMERGENT FLAG",
            "Y",
            "DERIVED",
            "CLINICAL STUDY SPONSOR"
          ],
          [
            152,
            "CDISCPILOT01",
            "AE",
            "01-701-1302",
            "AESEQ",
            "8",
            "AETRTEM",
            "TREATMENT EMERGENT FLAG",
            "Y",
            "DERIVED",
            "CLINICAL STUDY SPONSOR"
          ],
          [
            153,
            "CDISCPILOT01",
            "AE",
            "01-701-1302",
            "AESEQ",
            "9",
            "AETRTEM",
            "TREATMENT EMERGENT FLAG",
            "Y",
            "DERIVED",
            "CLINICAL STUDY SPONSOR"
          ],
          [
            154,
            "CDISCPILOT01",
            "AE",
            "01-701-1317",
            "AESEQ",
            "1",
            "AETRTEM",
            "TREATMENT EMERGENT FLAG",
            "N",
            "DERIVED",
            "CLINICAL STUDY SPONSOR"
          ],
          [
            155,
            "CDISCPILOT01",
            "AE",
            "01-701-1317",
            "AESEQ",
            "2",
            "AETRTEM",
            "TREATMENT EMERGENT FLAG",
            "N",
            "DERIVED",
            "CLINICAL STUDY SPONSOR"
          ],
          [
            156,
            "CDISCPILOT01",
            "AE",
            "01-701-1317",
            "AESEQ",
            "3",
            "AETRTEM",
            "TREATMENT EMERGENT FLAG",
            "Y",
            "DERIVED",
            "CLINICAL STUDY SPONSOR"
          ],
          [
            157,
            "CDISCPILOT01",
            "AE",
            "01-701-1317",
            "AESEQ",
            "4",
            "AETRTEM",
            "TREATMENT EMERGENT FLAG",
            "Y",
            "DERIVED",
            "CLINICAL STUDY SPONSOR"
          ],
          [
            158,
            "CDISCPILOT01",
            "AE",
            "01-701-1317",
            "AESEQ",
            "5",
            "AETRTEM",
            "TREATMENT EMERGENT FLAG",
            "Y",
            "DERIVED",
            "CLINICAL STUDY SPONSOR"
          ],
          [
            159,
            "CDISCPILOT01",
            "AE",
            "01-701-1317",
            "AESEQ",
            "6",
            "AETRTEM",
            "TREATMENT EMERGENT FLAG",
            "Y",
            "DERIVED",
            "CLINICAL STUDY SPONSOR"
          ],
          [
            160,
            "CDISCPILOT01",
            "AE",
            "01-701-1317",
            "AESEQ",
            "7",
            "AETRTEM",
            "TREATMENT EMERGENT FLAG",
            "Y",
            "DERIVED",
            "CLINICAL STUDY SPONSOR"
          ],
          [
            161,
            "CDISCPILOT01",
            "AE",
            "01-701-1317",
            "AESEQ",
            "8",
            "AETRTEM",
            "TREATMENT EMERGENT FLAG",
            "Y",
            "DERIVED",
            "CLINICAL STUDY SPONSOR"
          ],
          [
            162,
            "CDISCPILOT01",
            "AE",
            "01-701-1317",
            "AESEQ",
            "9",
            "AETRTEM",
            "TREATMENT EMERGENT FLAG",
            "Y",
            "DERIVED",
            "CLINICAL STUDY SPONSOR"
          ],
          [
            163,
            "CDISCPILOT01",
            "AE",
            "01-701-1324",
            "AESEQ",
            "1",
            "AETRTEM",
            "TREATMENT EMERGENT FLAG",
            "Y",
            "DERIVED",
            "CLINICAL STUDY SPONSOR"
          ],
          [
            164,
            "CDISCPILOT01",
            "AE",
            "01-701-1324",
            "AESEQ",
            "2",
            "AETRTEM",
            "TREATMENT EMERGENT FLAG",
            "Y",
            "DERIVED",
            "CLINICAL STUDY SPONSOR"
          ],
          [
            165,
            "CDISCPILOT01",
            "AE",
            "01-701-1324",
            "AESEQ",
            "4",
            "AETRTEM",
            "TREATMENT EMERGENT FLAG",
            "Y",
            "DERIVED",
            "CLINICAL STUDY SPONSOR"
          ],
          [
            166,
            "CDISCPILOT01",
            "AE",
            "01-701-1341",
            "AESEQ",
            "1",
            "AETRTEM",
            "TREATMENT EMERGENT FLAG",
            "Y",
            "DERIVED",
            "CLINICAL STUDY SPONSOR"
          ],
          [
            167,
            "CDISCPILOT01",
            "AE",
            "01-701-1341",
            "AESEQ",
            "2",
            "AETRTEM",
            "TREATMENT EMERGENT FLAG",
            "Y",
            "DERIVED",
            "CLINICAL STUDY SPONSOR"
          ],
          [
            168,
            "CDISCPILOT01",
            "AE",
            "01-701-1341",
            "AESEQ",
            "3",
            "AETRTEM",
            "TREATMENT EMERGENT FLAG",
            "Y",
            "DERIVED",
            "CLINICAL STUDY SPONSOR"
          ],
          [
            169,
            "CDISCPILOT01",
            "AE",
            "01-701-1341",
            "AESEQ",
            "4",
            "AETRTEM",
            "TREATMENT EMERGENT FLAG",
            "Y",
            "DERIVED",
            "CLINICAL STUDY SPONSOR"
          ],
          [
            170,
            "CDISCPILOT01",
            "AE",
            "01-701-1341",
            "AESEQ",
            "5",
            "AETRTEM",
            "TREATMENT EMERGENT FLAG",
            "Y",
            "DERIVED",
            "CLINICAL STUDY SPONSOR"
          ],
          [
            171,
            "CDISCPILOT01",
            "AE",
            "01-701-1360",
            "AESEQ",
            "1",
            "AETRTEM",
            "TREATMENT EMERGENT FLAG",
            "Y",
            "DERIVED",
            "CLINICAL STUDY SPONSOR"
          ],
          [
            172,
            "CDISCPILOT01",
            "AE",
            "01-701-1360",
            "AESEQ",
            "2",
            "AETRTEM",
            "TREATMENT EMERGENT FLAG",
            "Y",
            "DERIVED",
            "CLINICAL STUDY SPONSOR"
          ],
          [
            173,
            "CDISCPILOT01",
            "AE",
            "01-701-1360",
            "AESEQ",
            "3",
            "AETRTEM",
            "TREATMENT EMERGENT FLAG",
            "Y",
            "DERIVED",
            "CLINICAL STUDY SPONSOR"
          ],
          [
            174,
            "CDISCPILOT01",
            "AE",
            "01-701-1363",
            "AESEQ",
            "1",
            "AETRTEM",
            "TREATMENT EMERGENT FLAG",
            "Y",
            "DERIVED",
            "CLINICAL STUDY SPONSOR"
          ],
          [
            175,
            "CDISCPILOT01",
            "AE",
            "01-701-1363",
            "AESEQ",
            "2",
            "AETRTEM",
            "TREATMENT EMERGENT FLAG",
            "N",
            "DERIVED",
            "CLINICAL STUDY SPONSOR"
          ],
          [
            176,
            "CDISCPILOT01",
            "AE",
            "01-701-1363",
            "AESEQ",
            "3",
            "AETRTEM",
            "TREATMENT EMERGENT FLAG",
            "Y",
            "DERIVED",
            "CLINICAL STUDY SPONSOR"
          ],
          [
            177,
            "CDISCPILOT01",
            "AE",
            "01-701-1363",
            "AESEQ",
            "4",
            "AETRTEM",
            "TREATMENT EMERGENT FLAG",
            "N",
            "DERIVED",
            "CLINICAL STUDY SPONSOR"
          ],
          [
            178,
            "CDISCPILOT01",
            "AE",
            "01-701-1363",
            "AESEQ",
            "6",
            "AETRTEM",
            "TREATMENT EMERGENT FLAG",
            "Y",
            "DERIVED",
            "CLINICAL STUDY SPONSOR"
          ],
          [
            179,
            "CDISCPILOT01",
            "AE",
            "01-701-1383",
            "AESEQ",
            "1",
            "AETRTEM",
            "TREATMENT EMERGENT FLAG",
            "Y",
            "DERIVED",
            "CLINICAL STUDY SPONSOR"
          ],
          [
            180,
            "CDISCPILOT01",
            "AE",
            "01-701-1383",
            "AESEQ",
            "10",
            "AETRTEM",
            "TREATMENT EMERGENT FLAG",
            "Y",
            "DERIVED",
            "CLINICAL STUDY SPONSOR"
          ],
          [
            181,
            "CDISCPILOT01",
            "AE",
            "01-701-1383",
            "AESEQ",
            "11",
            "AETRTEM",
            "TREATMENT EMERGENT FLAG",
            "Y",
            "DERIVED",
            "CLINICAL STUDY SPONSOR"
          ],
          [
            182,
            "CDISCPILOT01",
            "AE",
            "01-701-1383",
            "AESEQ",
            "12",
            "AETRTEM",
            "TREATMENT EMERGENT FLAG",
            "Y",
            "DERIVED",
            "CLINICAL STUDY SPONSOR"
          ],
          [
            183,
            "CDISCPILOT01",
            "AE",
            "01-701-1383",
            "AESEQ",
            "2",
            "AETRTEM",
            "TREATMENT EMERGENT FLAG",
            "Y",
            "DERIVED",
            "CLINICAL STUDY SPONSOR"
          ],
          [
            184,
            "CDISCPILOT01",
            "AE",
            "01-701-1383",
            "AESEQ",
            "3",
            "AETRTEM",
            "TREATMENT EMERGENT FLAG",
            "Y",
            "DERIVED",
            "CLINICAL STUDY SPONSOR"
          ],
          [
            185,
            "CDISCPILOT01",
            "AE",
            "01-701-1383",
            "AESEQ",
            "4",
            "AETRTEM",
            "TREATMENT EMERGENT FLAG",
            "Y",
            "DERIVED",
            "CLINICAL STUDY SPONSOR"
          ],
          [
            186,
            "CDISCPILOT01",
            "AE",
            "01-701-1383",
            "AESEQ",
            "5",
            "AETRTEM",
            "TREATMENT EMERGENT FLAG",
            "Y",
            "DERIVED",
            "CLINICAL STUDY SPONSOR"
          ],
          [
            187,
            "CDISCPILOT01",
            "AE",
            "01-701-1383",
            "AESEQ",
            "6",
            "AETRTEM",
            "TREATMENT EMERGENT FLAG",
            "Y",
            "DERIVED",
            "CLINICAL STUDY SPONSOR"
          ],
          [
            188,
            "CDISCPILOT01",
            "AE",
            "01-701-1383",
            "AESEQ",
            "7",
            "AETRTEM",
            "TREATMENT EMERGENT FLAG",
            "Y",
            "DERIVED",
            "CLINICAL STUDY SPONSOR"
          ],
          [
            189,
            "CDISCPILOT01",
            "AE",
            "01-701-1383",
            "AESEQ",
            "8",
            "AETRTEM",
            "TREATMENT EMERGENT FLAG",
            "Y",
            "DERIVED",
            "CLINICAL STUDY SPONSOR"
          ],
          [
            190,
            "CDISCPILOT01",
            "AE",
            "01-701-1383",
            "AESEQ",
            "9",
            "AETRTEM",
            "TREATMENT EMERGENT FLAG",
            "Y",
            "DERIVED",
            "CLINICAL STUDY SPONSOR"
          ],
          [
            191,
            "CDISCPILOT01",
            "AE",
            "01-701-1387",
            "AESEQ",
            "1",
            "AETRTEM",
            "TREATMENT EMERGENT FLAG",
            "Y",
            "DERIVED",
            "CLINICAL STUDY SPONSOR"
          ],
          [
            192,
            "CDISCPILOT01",
            "AE",
            "01-701-1387",
            "AESEQ",
            "2",
            "AETRTEM",
            "TREATMENT EMERGENT FLAG",
            "Y",
            "DERIVED",
            "CLINICAL STUDY SPONSOR"
          ],
          [
            193,
            "CDISCPILOT01",
            "AE",
            "01-701-1392",
            "AESEQ",
            "2",
            "AETRTEM",
            "TREATMENT EMERGENT FLAG",
            "Y",
            "DERIVED",
            "CLINICAL STUDY SPONSOR"
          ],
          [
            194,
            "CDISCPILOT01",
            "AE",
            "01-701-1415",
            "AESEQ",
            "2",
            "AETRTEM",
            "TREATMENT EMERGENT FLAG",
            "Y",
            "DERIVED",
            "CLINICAL STUDY SPONSOR"
          ],
          [
            195,
            "CDISCPILOT01",
            "AE",
            "01-701-1415",
            "AESEQ",
            "3",
            "AETRTEM",
            "TREATMENT EMERGENT FLAG",
            "Y",
            "DERIVED",
            "CLINICAL STUDY SPONSOR"
          ],
          [
            196,
            "CDISCPILOT01",
            "AE",
            "01-701-1415",
            "AESEQ",
            "5",
            "AETRTEM",
            "TREATMENT EMERGENT FLAG",
            "Y",
            "DERIVED",
            "CLINICAL STUDY SPONSOR"
          ],
          [
            197,
            "CDISCPILOT01",
            "AE",
            "01-701-1415",
            "AESEQ",
            "6",
            "AETRTEM",
            "TREATMENT EMERGENT FLAG",
            "Y",
            "DERIVED",
            "CLINICAL STUDY SPONSOR"
          ],
          [
            198,
            "CDISCPILOT01",
            "AE",
            "01-701-1442",
            "AESEQ",
            "1",
            "AETRTEM",
            "TREATMENT EMERGENT FLAG",
            "Y",
            "DERIVED",
            "CLINICAL STUDY SPONSOR"
          ],
          [
            199,
            "CDISCPILOT01",
            "AE",
            "01-701-1444",
            "AESEQ",
            "1",
            "AETRTEM",
            "TREATMENT EMERGENT FLAG",
            "Y",
            "DERIVED",
            "CLINICAL STUDY SPONSOR"
          ],
          [
            200,
            "CDISCPILOT01",
            "AE",
            "01-701-1444",
            "AESEQ",
            "2",
            "AETRTEM",
            "TREATMENT EMERGENT FLAG",
            "Y",
            "DERIVED",
            "CLINICAL STUDY SPONSOR"
          ],
          [
            201,
            "CDISCPILOT01",
            "AE",
            "01-701-1444",
            "AESEQ",
            "3",
            "AETRTEM",
            "TREATMENT EMERGENT FLAG",
            "Y",
            "DERIVED",
            "CLINICAL STUDY SPONSOR"
          ],
          [
            202,
            "CDISCPILOT01",
            "AE",
            "01-701-1444",
            "AESEQ",
            "4",
            "AETRTEM",
            "TREATMENT EMERGENT FLAG",
            "Y",
            "DERIVED",
            "CLINICAL STUDY SPONSOR"
          ],
          [
            203,
            "CDISCPILOT01",
            "AE",
            "01-701-1444",
            "AESEQ",
            "5",
            "AETRTEM",
            "TREATMENT EMERGENT FLAG",
            "Y",
            "DERIVED",
            "CLINICAL STUDY SPONSOR"
          ],
          [
            204,
            "CDISCPILOT01",
            "AE",
            "01-701-1444",
            "AESEQ",
            "6",
            "AETRTEM",
            "TREATMENT EMERGENT FLAG",
            "Y",
            "DERIVED",
            "CLINICAL STUDY SPONSOR"
          ],
          [
            205,
            "CDISCPILOT01",
            "AE",
            "01-701-1444",
            "AESEQ",
            "7",
            "AETRTEM",
            "TREATMENT EMERGENT FLAG",
            "Y",
            "DERIVED",
            "CLINICAL STUDY SPONSOR"
          ],
          [
            206,
            "CDISCPILOT01",
            "AE",
            "01-701-1444",
            "AESEQ",
            "8",
            "AETRTEM",
            "TREATMENT EMERGENT FLAG",
            "Y",
            "DERIVED",
            "CLINICAL STUDY SPONSOR"
          ],
          [
            207,
            "CDISCPILOT01",
            "AE",
            "01-702-1082",
            "AESEQ",
            "10",
            "AETRTEM",
            "TREATMENT EMERGENT FLAG",
            "Y",
            "DERIVED",
            "CLINICAL STUDY SPONSOR"
          ],
          [
            208,
            "CDISCPILOT01",
            "AE",
            "01-702-1082",
            "AESEQ",
            "4",
            "AETRTEM",
            "TREATMENT EMERGENT FLAG",
            "N",
            "DERIVED",
            "CLINICAL STUDY SPONSOR"
          ],
          [
            209,
            "CDISCPILOT01",
            "AE",
            "01-702-1082",
            "AESEQ",
            "5",
            "AETRTEM",
            "TREATMENT EMERGENT FLAG",
            "N",
            "DERIVED",
            "CLINICAL STUDY SPONSOR"
          ],
          [
            210,
            "CDISCPILOT01",
            "AE",
            "01-702-1082",
            "AESEQ",
            "6",
            "AETRTEM",
            "TREATMENT EMERGENT FLAG",
            "N",
            "DERIVED",
            "CLINICAL STUDY SPONSOR"
          ],
          [
            211,
            "CDISCPILOT01",
            "AE",
            "01-702-1082",
            "AESEQ",
            "8",
            "AETRTEM",
            "TREATMENT EMERGENT FLAG",
            "Y",
            "DERIVED",
            "CLINICAL STUDY SPONSOR"
          ],
          [
            212,
            "CDISCPILOT01",
            "AE",
            "01-702-1082",
            "AESEQ",
            "9",
            "AETRTEM",
            "TREATMENT EMERGENT FLAG",
            "Y",
            "DERIVED",
            "CLINICAL STUDY SPONSOR"
          ],
          [
            213,
            "CDISCPILOT01",
            "AE",
            "01-703-1042",
            "AESEQ",
            "1",
            "AETRTEM",
            "TREATMENT EMERGENT FLAG",
            "Y",
            "DERIVED",
            "CLINICAL STUDY SPONSOR"
          ],
          [
            214,
            "CDISCPILOT01",
            "AE",
            "01-703-1042",
            "AESEQ",
            "2",
            "AETRTEM",
            "TREATMENT EMERGENT FLAG",
            "Y",
            "DERIVED",
            "CLINICAL STUDY SPONSOR"
          ],
          [
            215,
            "CDISCPILOT01",
            "AE",
            "01-703-1076",
            "AESEQ",
            "1",
            "AETRTEM",
            "TREATMENT EMERGENT FLAG",
            "Y",
            "DERIVED",
            "CLINICAL STUDY SPONSOR"
          ],
          [
            216,
            "CDISCPILOT01",
            "AE",
            "01-703-1076",
            "AESEQ",
            "2",
            "AETRTEM",
            "TREATMENT EMERGENT FLAG",
            "Y",
            "DERIVED",
            "CLINICAL STUDY SPONSOR"
          ],
          [
            217,
            "CDISCPILOT01",
            "AE",
            "01-703-1076",
            "AESEQ",
            "3",
            "AETRTEM",
            "TREATMENT EMERGENT FLAG",
            "N",
            "DERIVED",
            "CLINICAL STUDY SPONSOR"
          ],
          [
            218,
            "CDISCPILOT01",
            "AE",
            "01-703-1076",
            "AESEQ",
            "4",
            "AETRTEM",
            "TREATMENT EMERGENT FLAG",
            "Y",
            "DERIVED",
            "CLINICAL STUDY SPONSOR"
          ],
          [
            219,
            "CDISCPILOT01",
            "AE",
            "01-703-1076",
            "AESEQ",
            "5",
            "AETRTEM",
            "TREATMENT EMERGENT FLAG",
            "Y",
            "DERIVED",
            "CLINICAL STUDY SPONSOR"
          ],
          [
            220,
            "CDISCPILOT01",
            "AE",
            "01-703-1076",
            "AESEQ",
            "6",
            "AETRTEM",
            "TREATMENT EMERGENT FLAG",
            "Y",
            "DERIVED",
            "CLINICAL STUDY SPONSOR"
          ],
          [
            221,
            "CDISCPILOT01",
            "AE",
            "01-703-1076",
            "AESEQ",
            "7",
            "AETRTEM",
            "TREATMENT EMERGENT FLAG",
            "Y",
            "DERIVED",
            "CLINICAL STUDY SPONSOR"
          ],
          [
            222,
            "CDISCPILOT01",
            "AE",
            "01-703-1086",
            "AESEQ",
            "2",
            "AETRTEM",
            "TREATMENT EMERGENT FLAG",
            "Y",
            "DERIVED",
            "CLINICAL STUDY SPONSOR"
          ],
          [
            223,
            "CDISCPILOT01",
            "AE",
            "01-703-1086",
            "AESEQ",
            "3",
            "AETRTEM",
            "TREATMENT EMERGENT FLAG",
            "Y",
            "DERIVED",
            "CLINICAL STUDY SPONSOR"
          ],
          [
            224,
            "CDISCPILOT01",
            "AE",
            "01-703-1086",
            "AESEQ",
            "5",
            "AETRTEM",
            "TREATMENT EMERGENT FLAG",
            "Y",
            "DERIVED",
            "CLINICAL STUDY SPONSOR"
          ],
          [
            225,
            "CDISCPILOT01",
            "AE",
            "01-703-1086",
            "AESEQ",
            "6",
            "AETRTEM",
            "TREATMENT EMERGENT FLAG",
            "Y",
            "DERIVED",
            "CLINICAL STUDY SPONSOR"
          ],
          [
            226,
            "CDISCPILOT01",
            "AE",
            "01-703-1100",
            "AESEQ",
            "1",
            "AETRTEM",
            "TREATMENT EMERGENT FLAG",
            "Y",
            "DERIVED",
            "CLINICAL STUDY SPONSOR"
          ],
          [
            227,
            "CDISCPILOT01",
            "AE",
            "01-703-1100",
            "AESEQ",
            "3",
            "AETRTEM",
            "TREATMENT EMERGENT FLAG",
            "Y",
            "DERIVED",
            "CLINICAL STUDY SPONSOR"
          ],
          [
            228,
            "CDISCPILOT01",
            "AE",
            "01-703-1100",
            "AESEQ",
            "4",
            "AETRTEM",
            "TREATMENT EMERGENT FLAG",
            "Y",
            "DERIVED",
            "CLINICAL STUDY SPONSOR"
          ],
          [
            229,
            "CDISCPILOT01",
            "AE",
            "01-703-1100",
            "AESEQ",
            "5",
            "AETRTEM",
            "TREATMENT EMERGENT FLAG",
            "Y",
            "DERIVED",
            "CLINICAL STUDY SPONSOR"
          ],
          [
            230,
            "CDISCPILOT01",
            "AE",
            "01-703-1100",
            "AESEQ",
            "8",
            "AETRTEM",
            "TREATMENT EMERGENT FLAG",
            "N",
            "DERIVED",
            "CLINICAL STUDY SPONSOR"
          ],
          [
            231,
            "CDISCPILOT01",
            "AE",
            "01-703-1100",
            "AESEQ",
            "9",
            "AETRTEM",
            "TREATMENT EMERGENT FLAG",
            "Y",
            "DERIVED",
            "CLINICAL STUDY SPONSOR"
          ],
          [
            232,
            "CDISCPILOT01",
            "AE",
            "01-703-1119",
            "AESEQ",
            "1",
            "AETRTEM",
            "TREATMENT EMERGENT FLAG",
            "Y",
            "DERIVED",
            "CLINICAL STUDY SPONSOR"
          ],
          [
            233,
            "CDISCPILOT01",
            "AE",
            "01-703-1119",
            "AESEQ",
            "2",
            "AETRTEM",
            "TREATMENT EMERGENT FLAG",
            "Y",
            "DERIVED",
            "CLINICAL STUDY SPONSOR"
          ],
          [
            234,
            "CDISCPILOT01",
            "AE",
            "01-703-1119",
            "AESEQ",
            "3",
            "AETRTEM",
            "TREATMENT EMERGENT FLAG",
            "Y",
            "DERIVED",
            "CLINICAL STUDY SPONSOR"
          ],
          [
            235,
            "CDISCPILOT01",
            "AE",
            "01-703-1119",
            "AESEQ",
            "4",
            "AETRTEM",
            "TREATMENT EMERGENT FLAG",
            "Y",
            "DERIVED",
            "CLINICAL STUDY SPONSOR"
          ],
          [
            236,
            "CDISCPILOT01",
            "AE",
            "01-703-1175",
            "AESEQ",
            "1",
            "AETRTEM",
            "TREATMENT EMERGENT FLAG",
            "N",
            "DERIVED",
            "CLINICAL STUDY SPONSOR"
          ],
          [
            237,
            "CDISCPILOT01",
            "AE",
            "01-703-1182",
            "AESEQ",
            "1",
            "AETRTEM",
            "TREATMENT EMERGENT FLAG",
            "Y",
            "DERIVED",
            "CLINICAL STUDY SPONSOR"
          ],
          [
            238,
            "CDISCPILOT01",
            "AE",
            "01-703-1182",
            "AESEQ",
            "2",
            "AETRTEM",
            "TREATMENT EMERGENT FLAG",
            "Y",
            "DERIVED",
            "CLINICAL STUDY SPONSOR"
          ],
          [
            239,
            "CDISCPILOT01",
            "AE",
            "01-703-1182",
            "AESEQ",
            "3",
            "AETRTEM",
            "TREATMENT EMERGENT FLAG",
            "Y",
            "DERIVED",
            "CLINICAL STUDY SPONSOR"
          ],
          [
            240,
            "CDISCPILOT01",
            "AE",
            "01-703-1182",
            "AESEQ",
            "4",
            "AETRTEM",
            "TREATMENT EMERGENT FLAG",
            "Y",
            "DERIVED",
            "CLINICAL STUDY SPONSOR"
          ],
          [
            241,
            "CDISCPILOT01",
            "AE",
            "01-703-1210",
            "AESEQ",
            "1",
            "AETRTEM",
            "TREATMENT EMERGENT FLAG",
            "Y",
            "DERIVED",
            "CLINICAL STUDY SPONSOR"
          ],
          [
            242,
            "CDISCPILOT01",
            "AE",
            "01-703-1210",
            "AESEQ",
            "2",
            "AETRTEM",
            "TREATMENT EMERGENT FLAG",
            "Y",
            "DERIVED",
            "CLINICAL STUDY SPONSOR"
          ],
          [
            243,
            "CDISCPILOT01",
            "AE",
            "01-703-1210",
            "AESEQ",
            "3",
            "AETRTEM",
            "TREATMENT EMERGENT FLAG",
            "Y",
            "DERIVED",
            "CLINICAL STUDY SPONSOR"
          ],
          [
            244,
            "CDISCPILOT01",
            "AE",
            "01-703-1258",
            "AESEQ",
            "2",
            "AETRTEM",
            "TREATMENT EMERGENT FLAG",
            "N",
            "DERIVED",
            "CLINICAL STUDY SPONSOR"
          ],
          [
            245,
            "CDISCPILOT01",
            "AE",
            "01-703-1258",
            "AESEQ",
            "3",
            "AETRTEM",
            "TREATMENT EMERGENT FLAG",
            "Y",
            "DERIVED",
            "CLINICAL STUDY SPONSOR"
          ],
          [
            246,
            "CDISCPILOT01",
            "AE",
            "01-703-1258",
            "AESEQ",
            "5",
            "AETRTEM",
            "TREATMENT EMERGENT FLAG",
            "N",
            "DERIVED",
            "CLINICAL STUDY SPONSOR"
          ],
          [
            247,
            "CDISCPILOT01",
            "AE",
            "01-703-1258",
            "AESEQ",
            "6",
            "AETRTEM",
            "TREATMENT EMERGENT FLAG",
            "Y",
            "DERIVED",
            "CLINICAL STUDY SPONSOR"
          ],
          [
            248,
            "CDISCPILOT01",
            "AE",
            "01-703-1258",
            "AESEQ",
            "7",
            "AETRTEM",
            "TREATMENT EMERGENT FLAG",
            "Y",
            "DERIVED",
            "CLINICAL STUDY SPONSOR"
          ],
          [
            249,
            "CDISCPILOT01",
            "AE",
            "01-703-1295",
            "AESEQ",
            "1",
            "AETRTEM",
            "TREATMENT EMERGENT FLAG",
            "Y",
            "DERIVED",
            "CLINICAL STUDY SPONSOR"
          ],
          [
            250,
            "CDISCPILOT01",
            "AE",
            "01-703-1299",
            "AESEQ",
            "2",
            "AETRTEM",
            "TREATMENT EMERGENT FLAG",
            "Y",
            "DERIVED",
            "CLINICAL STUDY SPONSOR"
          ],
          [
            251,
            "CDISCPILOT01",
            "AE",
            "01-703-1299",
            "AESEQ",
            "3",
            "AETRTEM",
            "TREATMENT EMERGENT FLAG",
            "N",
            "DERIVED",
            "CLINICAL STUDY SPONSOR"
          ],
          [
            252,
            "CDISCPILOT01",
            "AE",
            "01-703-1299",
            "AESEQ",
            "4",
            "AETRTEM",
            "TREATMENT EMERGENT FLAG",
            "Y",
            "DERIVED",
            "CLINICAL STUDY SPONSOR"
          ],
          [
            253,
            "CDISCPILOT01",
            "AE",
            "01-703-1299",
            "AESEQ",
            "5",
            "AETRTEM",
            "TREATMENT EMERGENT FLAG",
            "Y",
            "DERIVED",
            "CLINICAL STUDY SPONSOR"
          ],
          [
            254,
            "CDISCPILOT01",
            "AE",
            "01-703-1299",
            "AESEQ",
            "6",
            "AETRTEM",
            "TREATMENT EMERGENT FLAG",
            "Y",
            "DERIVED",
            "CLINICAL STUDY SPONSOR"
          ],
          [
            255,
            "CDISCPILOT01",
            "AE",
            "01-703-1299",
            "AESEQ",
            "7",
            "AETRTEM",
            "TREATMENT EMERGENT FLAG",
            "Y",
            "DERIVED",
            "CLINICAL STUDY SPONSOR"
          ],
          [
            256,
            "CDISCPILOT01",
            "AE",
            "01-703-1299",
            "AESEQ",
            "8",
            "AETRTEM",
            "TREATMENT EMERGENT FLAG",
            "Y",
            "DERIVED",
            "CLINICAL STUDY SPONSOR"
          ],
          [
            257,
            "CDISCPILOT01",
            "AE",
            "01-703-1335",
            "AESEQ",
            "2",
            "AETRTEM",
            "TREATMENT EMERGENT FLAG",
            "N",
            "DERIVED",
            "CLINICAL STUDY SPONSOR"
          ],
          [
            258,
            "CDISCPILOT01",
            "AE",
            "01-703-1403",
            "AESEQ",
            "2",
            "AETRTEM",
            "TREATMENT EMERGENT FLAG",
            "Y",
            "DERIVED",
            "CLINICAL STUDY SPONSOR"
          ],
          [
            259,
            "CDISCPILOT01",
            "AE",
            "01-703-1403",
            "AESEQ",
            "3",
            "AETRTEM",
            "TREATMENT EMERGENT FLAG",
            "Y",
            "DERIVED",
            "CLINICAL STUDY SPONSOR"
          ],
          [
            260,
            "CDISCPILOT01",
            "AE",
            "01-703-1403",
            "AESEQ",
            "4",
            "AETRTEM",
            "TREATMENT EMERGENT FLAG",
            "Y",
            "DERIVED",
            "CLINICAL STUDY SPONSOR"
          ],
          [
            261,
            "CDISCPILOT01",
            "AE",
            "01-703-1403",
            "AESEQ",
            "5",
            "AETRTEM",
            "TREATMENT EMERGENT FLAG",
            "Y",
            "DERIVED",
            "CLINICAL STUDY SPONSOR"
          ],
          [
            262,
            "CDISCPILOT01",
            "AE",
            "01-703-1439",
            "AESEQ",
            "1",
            "AETRTEM",
            "TREATMENT EMERGENT FLAG",
            "Y",
            "DERIVED",
            "CLINICAL STUDY SPONSOR"
          ],
          [
            263,
            "CDISCPILOT01",
            "AE",
            "01-703-1439",
            "AESEQ",
            "2",
            "AETRTEM",
            "TREATMENT EMERGENT FLAG",
            "Y",
            "DERIVED",
            "CLINICAL STUDY SPONSOR"
          ],
          [
            264,
            "CDISCPILOT01",
            "AE",
            "01-704-1008",
            "AESEQ",
            "1",
            "AETRTEM",
            "TREATMENT EMERGENT FLAG",
            "Y",
            "DERIVED",
            "CLINICAL STUDY SPONSOR"
          ],
          [
            265,
            "CDISCPILOT01",
            "AE",
            "01-704-1008",
            "AESEQ",
            "2",
            "AETRTEM",
            "TREATMENT EMERGENT FLAG",
            "Y",
            "DERIVED",
            "CLINICAL STUDY SPONSOR"
          ],
          [
            266,
            "CDISCPILOT01",
            "AE",
            "01-704-1008",
            "AESEQ",
            "3",
            "AETRTEM",
            "TREATMENT EMERGENT FLAG",
            "Y",
            "DERIVED",
            "CLINICAL STUDY SPONSOR"
          ],
          [
            267,
            "CDISCPILOT01",
            "AE",
            "01-704-1009",
            "AESEQ",
            "1",
            "AETRTEM",
            "TREATMENT EMERGENT FLAG",
            "Y",
            "DERIVED",
            "CLINICAL STUDY SPONSOR"
          ],
          [
            268,
            "CDISCPILOT01",
            "AE",
            "01-704-1009",
            "AESEQ",
            "3",
            "AETRTEM",
            "TREATMENT EMERGENT FLAG",
            "Y",
            "DERIVED",
            "CLINICAL STUDY SPONSOR"
          ],
          [
            269,
            "CDISCPILOT01",
            "AE",
            "01-704-1009",
            "AESEQ",
            "4",
            "AETRTEM",
            "TREATMENT EMERGENT FLAG",
            "Y",
            "DERIVED",
            "CLINICAL STUDY SPONSOR"
          ],
          [
            270,
            "CDISCPILOT01",
            "AE",
            "01-704-1009",
            "AESEQ",
            "5",
            "AETRTEM",
            "TREATMENT EMERGENT FLAG",
            "Y",
            "DERIVED",
            "CLINICAL STUDY SPONSOR"
          ],
          [
            271,
            "CDISCPILOT01",
            "AE",
            "01-704-1009",
            "AESEQ",
            "6",
            "AETRTEM",
            "TREATMENT EMERGENT FLAG",
            "Y",
            "DERIVED",
            "CLINICAL STUDY SPONSOR"
          ],
          [
            272,
            "CDISCPILOT01",
            "AE",
            "01-704-1010",
            "AESEQ",
            "1",
            "AETRTEM",
            "TREATMENT EMERGENT FLAG",
            "Y",
            "DERIVED",
            "CLINICAL STUDY SPONSOR"
          ],
          [
            273,
            "CDISCPILOT01",
            "AE",
            "01-704-1010",
            "AESEQ",
            "2",
            "AETRTEM",
            "TREATMENT EMERGENT FLAG",
            "Y",
            "DERIVED",
            "CLINICAL STUDY SPONSOR"
          ],
          [
            274,
            "CDISCPILOT01",
            "AE",
            "01-704-1010",
            "AESEQ",
            "3",
            "AETRTEM",
            "TREATMENT EMERGENT FLAG",
            "Y",
            "DERIVED",
            "CLINICAL STUDY SPONSOR"
          ],
          [
            275,
            "CDISCPILOT01",
            "AE",
            "01-704-1010",
            "AESEQ",
            "4",
            "AETRTEM",
            "TREATMENT EMERGENT FLAG",
            "Y",
            "DERIVED",
            "CLINICAL STUDY SPONSOR"
          ],
          [
            276,
            "CDISCPILOT01",
            "AE",
            "01-704-1010",
            "AESEQ",
            "5",
            "AETRTEM",
            "TREATMENT EMERGENT FLAG",
            "Y",
            "DERIVED",
            "CLINICAL STUDY SPONSOR"
          ],
          [
            277,
            "CDISCPILOT01",
            "AE",
            "01-704-1010",
            "AESEQ",
            "6",
            "AETRTEM",
            "TREATMENT EMERGENT FLAG",
            "Y",
            "DERIVED",
            "CLINICAL STUDY SPONSOR"
          ],
          [
            278,
            "CDISCPILOT01",
            "AE",
            "01-704-1010",
            "AESEQ",
            "7",
            "AETRTEM",
            "TREATMENT EMERGENT FLAG",
            "Y",
            "DERIVED",
            "CLINICAL STUDY SPONSOR"
          ],
          [
            279,
            "CDISCPILOT01",
            "AE",
            "01-704-1017",
            "AESEQ",
            "1",
            "AETRTEM",
            "TREATMENT EMERGENT FLAG",
            "Y",
            "DERIVED",
            "CLINICAL STUDY SPONSOR"
          ],
          [
            280,
            "CDISCPILOT01",
            "AE",
            "01-704-1017",
            "AESEQ",
            "2",
            "AETRTEM",
            "TREATMENT EMERGENT FLAG",
            "Y",
            "DERIVED",
            "CLINICAL STUDY SPONSOR"
          ],
          [
            281,
            "CDISCPILOT01",
            "AE",
            "01-704-1017",
            "AESEQ",
            "3",
            "AETRTEM",
            "TREATMENT EMERGENT FLAG",
            "Y",
            "DERIVED",
            "CLINICAL STUDY SPONSOR"
          ],
          [
            282,
            "CDISCPILOT01",
            "AE",
            "01-704-1017",
            "AESEQ",
            "4",
            "AETRTEM",
            "TREATMENT EMERGENT FLAG",
            "Y",
            "DERIVED",
            "CLINICAL STUDY SPONSOR"
          ],
          [
            283,
            "CDISCPILOT01",
            "AE",
            "01-704-1017",
            "AESEQ",
            "7",
            "AETRTEM",
            "TREATMENT EMERGENT FLAG",
            "Y",
            "DERIVED",
            "CLINICAL STUDY SPONSOR"
          ],
          [
            284,
            "CDISCPILOT01",
            "AE",
            "01-704-1017",
            "AESEQ",
            "8",
            "AETRTEM",
            "TREATMENT EMERGENT FLAG",
            "Y",
            "DERIVED",
            "CLINICAL STUDY SPONSOR"
          ],
          [
            285,
            "CDISCPILOT01",
            "AE",
            "01-704-1025",
            "AESEQ",
            "1",
            "AETRTEM",
            "TREATMENT EMERGENT FLAG",
            "Y",
            "DERIVED",
            "CLINICAL STUDY SPONSOR"
          ],
          [
            286,
            "CDISCPILOT01",
            "AE",
            "01-704-1025",
            "AESEQ",
            "2",
            "AETRTEM",
            "TREATMENT EMERGENT FLAG",
            "Y",
            "DERIVED",
            "CLINICAL STUDY SPONSOR"
          ],
          [
            287,
            "CDISCPILOT01",
            "AE",
            "01-704-1025",
            "AESEQ",
            "5",
            "AETRTEM",
            "TREATMENT EMERGENT FLAG",
            "Y",
            "DERIVED",
            "CLINICAL STUDY SPONSOR"
          ],
          [
            288,
            "CDISCPILOT01",
            "AE",
            "01-704-1025",
            "AESEQ",
            "6",
            "AETRTEM",
            "TREATMENT EMERGENT FLAG",
            "Y",
            "DERIVED",
            "CLINICAL STUDY SPONSOR"
          ],
          [
            289,
            "CDISCPILOT01",
            "AE",
            "01-704-1065",
            "AESEQ",
            "1",
            "AETRTEM",
            "TREATMENT EMERGENT FLAG",
            "Y",
            "DERIVED",
            "CLINICAL STUDY SPONSOR"
          ],
          [
            290,
            "CDISCPILOT01",
            "AE",
            "01-704-1065",
            "AESEQ",
            "10",
            "AETRTEM",
            "TREATMENT EMERGENT FLAG",
            "Y",
            "DERIVED",
            "CLINICAL STUDY SPONSOR"
          ],
          [
            291,
            "CDISCPILOT01",
            "AE",
            "01-704-1065",
            "AESEQ",
            "2",
            "AETRTEM",
            "TREATMENT EMERGENT FLAG",
            "Y",
            "DERIVED",
            "CLINICAL STUDY SPONSOR"
          ],
          [
            292,
            "CDISCPILOT01",
            "AE",
            "01-704-1065",
            "AESEQ",
            "3",
            "AETRTEM",
            "TREATMENT EMERGENT FLAG",
            "Y",
            "DERIVED",
            "CLINICAL STUDY SPONSOR"
          ],
          [
            293,
            "CDISCPILOT01",
            "AE",
            "01-704-1065",
            "AESEQ",
            "4",
            "AETRTEM",
            "TREATMENT EMERGENT FLAG",
            "Y",
            "DERIVED",
            "CLINICAL STUDY SPONSOR"
          ],
          [
            294,
            "CDISCPILOT01",
            "AE",
            "01-704-1065",
            "AESEQ",
            "5",
            "AETRTEM",
            "TREATMENT EMERGENT FLAG",
            "Y",
            "DERIVED",
            "CLINICAL STUDY SPONSOR"
          ],
          [
            295,
            "CDISCPILOT01",
            "AE",
            "01-704-1065",
            "AESEQ",
            "6",
            "AETRTEM",
            "TREATMENT EMERGENT FLAG",
            "Y",
            "DERIVED",
            "CLINICAL STUDY SPONSOR"
          ],
          [
            296,
            "CDISCPILOT01",
            "AE",
            "01-704-1065",
            "AESEQ",
            "7",
            "AETRTEM",
            "TREATMENT EMERGENT FLAG",
            "Y",
            "DERIVED",
            "CLINICAL STUDY SPONSOR"
          ],
          [
            297,
            "CDISCPILOT01",
            "AE",
            "01-704-1065",
            "AESEQ",
            "8",
            "AETRTEM",
            "TREATMENT EMERGENT FLAG",
            "Y",
            "DERIVED",
            "CLINICAL STUDY SPONSOR"
          ],
          [
            298,
            "CDISCPILOT01",
            "AE",
            "01-704-1065",
            "AESEQ",
            "9",
            "AETRTEM",
            "TREATMENT EMERGENT FLAG",
            "Y",
            "DERIVED",
            "CLINICAL STUDY SPONSOR"
          ],
          [
            299,
            "CDISCPILOT01",
            "AE",
            "01-704-1074",
            "AESEQ",
            "1",
            "AETRTEM",
            "TREATMENT EMERGENT FLAG",
            "Y",
            "DERIVED",
            "CLINICAL STUDY SPONSOR"
          ],
          [
            300,
            "CDISCPILOT01",
            "AE",
            "01-704-1074",
            "AESEQ",
            "2",
            "AETRTEM",
            "TREATMENT EMERGENT FLAG",
            "Y",
            "DERIVED",
            "CLINICAL STUDY SPONSOR"
          ],
          [
            301,
            "CDISCPILOT01",
            "AE",
            "01-704-1093",
            "AESEQ",
            "2",
            "AETRTEM",
            "TREATMENT EMERGENT FLAG",
            "Y",
            "DERIVED",
            "CLINICAL STUDY SPONSOR"
          ],
          [
            302,
            "CDISCPILOT01",
            "AE",
            "01-704-1093",
            "AESEQ",
            "3",
            "AETRTEM",
            "TREATMENT EMERGENT FLAG",
            "Y",
            "DERIVED",
            "CLINICAL STUDY SPONSOR"
          ],
          [
            303,
            "CDISCPILOT01",
            "AE",
            "01-704-1093",
            "AESEQ",
            "4",
            "AETRTEM",
            "TREATMENT EMERGENT FLAG",
            "Y",
            "DERIVED",
            "CLINICAL STUDY SPONSOR"
          ],
          [
            304,
            "CDISCPILOT01",
            "AE",
            "01-704-1114",
            "AESEQ",
            "1",
            "AETRTEM",
            "TREATMENT EMERGENT FLAG",
            "Y",
            "DERIVED",
            "CLINICAL STUDY SPONSOR"
          ],
          [
            305,
            "CDISCPILOT01",
            "AE",
            "01-704-1114",
            "AESEQ",
            "2",
            "AETRTEM",
            "TREATMENT EMERGENT FLAG",
            "Y",
            "DERIVED",
            "CLINICAL STUDY SPONSOR"
          ],
          [
            306,
            "CDISCPILOT01",
            "AE",
            "01-704-1114",
            "AESEQ",
            "3",
            "AETRTEM",
            "TREATMENT EMERGENT FLAG",
            "Y",
            "DERIVED",
            "CLINICAL STUDY SPONSOR"
          ],
          [
            307,
            "CDISCPILOT01",
            "AE",
            "01-704-1114",
            "AESEQ",
            "4",
            "AETRTEM",
            "TREATMENT EMERGENT FLAG",
            "Y",
            "DERIVED",
            "CLINICAL STUDY SPONSOR"
          ],
          [
            308,
            "CDISCPILOT01",
            "AE",
            "01-704-1114",
            "AESEQ",
            "5",
            "AETRTEM",
            "TREATMENT EMERGENT FLAG",
            "Y",
            "DERIVED",
            "CLINICAL STUDY SPONSOR"
          ],
          [
            309,
            "CDISCPILOT01",
            "AE",
            "01-704-1120",
            "AESEQ",
            "1",
            "AETRTEM",
            "TREATMENT EMERGENT FLAG",
            "Y",
            "DERIVED",
            "CLINICAL STUDY SPONSOR"
          ],
          [
            310,
            "CDISCPILOT01",
            "AE",
            "01-704-1120",
            "AESEQ",
            "3",
            "AETRTEM",
            "TREATMENT EMERGENT FLAG",
            "Y",
            "DERIVED",
            "CLINICAL STUDY SPONSOR"
          ],
          [
            311,
            "CDISCPILOT01",
            "AE",
            "01-704-1120",
            "AESEQ",
            "4",
            "AETRTEM",
            "TREATMENT EMERGENT FLAG",
            "Y",
            "DERIVED",
            "CLINICAL STUDY SPONSOR"
          ],
          [
            312,
            "CDISCPILOT01",
            "AE",
            "01-704-1120",
            "AESEQ",
            "5",
            "AETRTEM",
            "TREATMENT EMERGENT FLAG",
            "Y",
            "DERIVED",
            "CLINICAL STUDY SPONSOR"
          ],
          [
            313,
            "CDISCPILOT01",
            "AE",
            "01-704-1120",
            "AESEQ",
            "6",
            "AETRTEM",
            "TREATMENT EMERGENT FLAG",
            "Y",
            "DERIVED",
            "CLINICAL STUDY SPONSOR"
          ],
          [
            314,
            "CDISCPILOT01",
            "AE",
            "01-704-1135",
            "AESEQ",
            "1",
            "AETRTEM",
            "TREATMENT EMERGENT FLAG",
            "Y",
            "DERIVED",
            "CLINICAL STUDY SPONSOR"
          ],
          [
            315,
            "CDISCPILOT01",
            "AE",
            "01-704-1135",
            "AESEQ",
            "2",
            "AETRTEM",
            "TREATMENT EMERGENT FLAG",
            "Y",
            "DERIVED",
            "CLINICAL STUDY SPONSOR"
          ],
          [
            316,
            "CDISCPILOT01",
            "AE",
            "01-704-1164",
            "AESEQ",
            "2",
            "AETRTEM",
            "TREATMENT EMERGENT FLAG",
            "Y",
            "DERIVED",
            "CLINICAL STUDY SPONSOR"
          ],
          [
            317,
            "CDISCPILOT01",
            "AE",
            "01-704-1164",
            "AESEQ",
            "3",
            "AETRTEM",
            "TREATMENT EMERGENT FLAG",
            "Y",
            "DERIVED",
            "CLINICAL STUDY SPONSOR"
          ],
          [
            318,
            "CDISCPILOT01",
            "AE",
            "01-704-1218",
            "AESEQ",
            "1",
            "AETRTEM",
            "TREATMENT EMERGENT FLAG",
            "Y",
            "DERIVED",
            "CLINICAL STUDY SPONSOR"
          ],
          [
            319,
            "CDISCPILOT01",
            "AE",
            "01-704-1241",
            "AESEQ",
            "1",
            "AETRTEM",
            "TREATMENT EMERGENT FLAG",
            "N",
            "DERIVED",
            "CLINICAL STUDY SPONSOR"
          ],
          [
            320,
            "CDISCPILOT01",
            "AE",
            "01-704-1241",
            "AESEQ",
            "2",
            "AETRTEM",
            "TREATMENT EMERGENT FLAG",
            "Y",
            "DERIVED",
            "CLINICAL STUDY SPONSOR"
          ],
          [
            321,
            "CDISCPILOT01",
            "AE",
            "01-704-1266",
            "AESEQ",
            "1",
            "AETRTEM",
            "TREATMENT EMERGENT FLAG",
            "N",
            "DERIVED",
            "CLINICAL STUDY SPONSOR"
          ],
          [
            322,
            "CDISCPILOT01",
            "AE",
            "01-704-1266",
            "AESEQ",
            "10",
            "AETRTEM",
            "TREATMENT EMERGENT FLAG",
            "Y",
            "DERIVED",
            "CLINICAL STUDY SPONSOR"
          ],
          [
            323,
            "CDISCPILOT01",
            "AE",
            "01-704-1266",
            "AESEQ",
            "12",
            "AETRTEM",
            "TREATMENT EMERGENT FLAG",
            "Y",
            "DERIVED",
            "CLINICAL STUDY SPONSOR"
          ],
          [
            324,
            "CDISCPILOT01",
            "AE",
            "01-704-1266",
            "AESEQ",
            "13",
            "AETRTEM",
            "TREATMENT EMERGENT FLAG",
            "Y",
            "DERIVED",
            "CLINICAL STUDY SPONSOR"
          ],
          [
            325,
            "CDISCPILOT01",
            "AE",
            "01-704-1266",
            "AESEQ",
            "14",
            "AETRTEM",
            "TREATMENT EMERGENT FLAG",
            "Y",
            "DERIVED",
            "CLINICAL STUDY SPONSOR"
          ],
          [
            326,
            "CDISCPILOT01",
            "AE",
            "01-704-1266",
            "AESEQ",
            "15",
            "AETRTEM",
            "TREATMENT EMERGENT FLAG",
            "Y",
            "DERIVED",
            "CLINICAL STUDY SPONSOR"
          ],
          [
            327,
            "CDISCPILOT01",
            "AE",
            "01-704-1266",
            "AESEQ",
            "16",
            "AETRTEM",
            "TREATMENT EMERGENT FLAG",
            "Y",
            "DERIVED",
            "CLINICAL STUDY SPONSOR"
          ],
          [
            328,
            "CDISCPILOT01",
            "AE",
            "01-704-1266",
            "AESEQ",
            "2",
            "AETRTEM",
            "TREATMENT EMERGENT FLAG",
            "Y",
            "DERIVED",
            "CLINICAL STUDY SPONSOR"
          ],
          [
            329,
            "CDISCPILOT01",
            "AE",
            "01-704-1266",
            "AESEQ",
            "5",
            "AETRTEM",
            "TREATMENT EMERGENT FLAG",
            "Y",
            "DERIVED",
            "CLINICAL STUDY SPONSOR"
          ],
          [
            330,
            "CDISCPILOT01",
            "AE",
            "01-704-1323",
            "AESEQ",
            "1",
            "AETRTEM",
            "TREATMENT EMERGENT FLAG",
            "Y",
            "DERIVED",
            "CLINICAL STUDY SPONSOR"
          ],
          [
            331,
            "CDISCPILOT01",
            "AE",
            "01-704-1323",
            "AESEQ",
            "2",
            "AETRTEM",
            "TREATMENT EMERGENT FLAG",
            "Y",
            "DERIVED",
            "CLINICAL STUDY SPONSOR"
          ],
          [
            332,
            "CDISCPILOT01",
            "AE",
            "01-704-1323",
            "AESEQ",
            "3",
            "AETRTEM",
            "TREATMENT EMERGENT FLAG",
            "Y",
            "DERIVED",
            "CLINICAL STUDY SPONSOR"
          ],
          [
            333,
            "CDISCPILOT01",
            "AE",
            "01-704-1323",
            "AESEQ",
            "4",
            "AETRTEM",
            "TREATMENT EMERGENT FLAG",
            "Y",
            "DERIVED",
            "CLINICAL STUDY SPONSOR"
          ],
          [
            334,
            "CDISCPILOT01",
            "AE",
            "01-704-1325",
            "AESEQ",
            "1",
            "AETRTEM",
            "TREATMENT EMERGENT FLAG",
            "Y",
            "DERIVED",
            "CLINICAL STUDY SPONSOR"
          ],
          [
            335,
            "CDISCPILOT01",
            "AE",
            "01-704-1325",
            "AESEQ",
            "2",
            "AETRTEM",
            "TREATMENT EMERGENT FLAG",
            "Y",
            "DERIVED",
            "CLINICAL STUDY SPONSOR"
          ],
          [
            336,
            "CDISCPILOT01",
            "AE",
            "01-704-1332",
            "AESEQ",
            "1",
            "AETRTEM",
            "TREATMENT EMERGENT FLAG",
            "Y",
            "DERIVED",
            "CLINICAL STUDY SPONSOR"
          ],
          [
            337,
            "CDISCPILOT01",
            "AE",
            "01-704-1332",
            "AESEQ",
            "4",
            "AETRTEM",
            "TREATMENT EMERGENT FLAG",
            "Y",
            "DERIVED",
            "CLINICAL STUDY SPONSOR"
          ],
          [
            338,
            "CDISCPILOT01",
            "AE",
            "01-704-1332",
            "AESEQ",
            "5",
            "AETRTEM",
            "TREATMENT EMERGENT FLAG",
            "Y",
            "DERIVED",
            "CLINICAL STUDY SPONSOR"
          ],
          [
            339,
            "CDISCPILOT01",
            "AE",
            "01-704-1332",
            "AESEQ",
            "6",
            "AETRTEM",
            "TREATMENT EMERGENT FLAG",
            "Y",
            "DERIVED",
            "CLINICAL STUDY SPONSOR"
          ],
          [
            340,
            "CDISCPILOT01",
            "AE",
            "01-704-1351",
            "AESEQ",
            "3",
            "AETRTEM",
            "TREATMENT EMERGENT FLAG",
            "Y",
            "DERIVED",
            "CLINICAL STUDY SPONSOR"
          ],
          [
            341,
            "CDISCPILOT01",
            "AE",
            "01-704-1351",
            "AESEQ",
            "4",
            "AETRTEM",
            "TREATMENT EMERGENT FLAG",
            "Y",
            "DERIVED",
            "CLINICAL STUDY SPONSOR"
          ],
          [
            342,
            "CDISCPILOT01",
            "AE",
            "01-704-1388",
            "AESEQ",
            "1",
            "AETRTEM",
            "TREATMENT EMERGENT FLAG",
            "N",
            "DERIVED",
            "CLINICAL STUDY SPONSOR"
          ],
          [
            343,
            "CDISCPILOT01",
            "AE",
            "01-704-1435",
            "AESEQ",
            "1",
            "AETRTEM",
            "TREATMENT EMERGENT FLAG",
            "Y",
            "DERIVED",
            "CLINICAL STUDY SPONSOR"
          ],
          [
            344,
            "CDISCPILOT01",
            "AE",
            "01-704-1445",
            "AESEQ",
            "1",
            "AETRTEM",
            "TREATMENT EMERGENT FLAG",
            "Y",
            "DERIVED",
            "CLINICAL STUDY SPONSOR"
          ],
          [
            345,
            "CDISCPILOT01",
            "AE",
            "01-705-1031",
            "AESEQ",
            "1",
            "AETRTEM",
            "TREATMENT EMERGENT FLAG",
            "Y",
            "DERIVED",
            "CLINICAL STUDY SPONSOR"
          ],
          [
            346,
            "CDISCPILOT01",
            "AE",
            "01-705-1059",
            "AESEQ",
            "1",
            "AETRTEM",
            "TREATMENT EMERGENT FLAG",
            "Y",
            "DERIVED",
            "CLINICAL STUDY SPONSOR"
          ],
          [
            347,
            "CDISCPILOT01",
            "AE",
            "01-705-1186",
            "AESEQ",
            "1",
            "AETRTEM",
            "TREATMENT EMERGENT FLAG",
            "Y",
            "DERIVED",
            "CLINICAL STUDY SPONSOR"
          ],
          [
            348,
            "CDISCPILOT01",
            "AE",
            "01-705-1199",
            "AESEQ",
            "2",
            "AETRTEM",
            "TREATMENT EMERGENT FLAG",
            "Y",
            "DERIVED",
            "CLINICAL STUDY SPONSOR"
          ],
          [
            349,
            "CDISCPILOT01",
            "AE",
            "01-705-1280",
            "AESEQ",
            "1",
            "AETRTEM",
            "TREATMENT EMERGENT FLAG",
            "Y",
            "DERIVED",
            "CLINICAL STUDY SPONSOR"
          ],
          [
            350,
            "CDISCPILOT01",
            "AE",
            "01-705-1281",
            "AESEQ",
            "1",
            "AETRTEM",
            "TREATMENT EMERGENT FLAG",
            "Y",
            "DERIVED",
            "CLINICAL STUDY SPONSOR"
          ],
          [
            351,
            "CDISCPILOT01",
            "AE",
            "01-705-1281",
            "AESEQ",
            "2",
            "AETRTEM",
            "TREATMENT EMERGENT FLAG",
            "Y",
            "DERIVED",
            "CLINICAL STUDY SPONSOR"
          ],
          [
            352,
            "CDISCPILOT01",
            "AE",
            "01-705-1281",
            "AESEQ",
            "3",
            "AETRTEM",
            "TREATMENT EMERGENT FLAG",
            "Y",
            "DERIVED",
            "CLINICAL STUDY SPONSOR"
          ],
          [
            353,
            "CDISCPILOT01",
            "AE",
            "01-705-1292",
            "AESEQ",
            "1",
            "AETRTEM",
            "TREATMENT EMERGENT FLAG",
            "Y",
            "DERIVED",
            "CLINICAL STUDY SPONSOR"
          ],
          [
            354,
            "CDISCPILOT01",
            "AE",
            "01-705-1292",
            "AESEQ",
            "2",
            "AETRTEM",
            "TREATMENT EMERGENT FLAG",
            "Y",
            "DERIVED",
            "CLINICAL STUDY SPONSOR"
          ],
          [
            355,
            "CDISCPILOT01",
            "AE",
            "01-705-1303",
            "AESEQ",
            "2",
            "AETRTEM",
            "TREATMENT EMERGENT FLAG",
            "Y",
            "DERIVED",
            "CLINICAL STUDY SPONSOR"
          ],
          [
            356,
            "CDISCPILOT01",
            "AE",
            "01-705-1303",
            "AESEQ",
            "3",
            "AETRTEM",
            "TREATMENT EMERGENT FLAG",
            "Y",
            "DERIVED",
            "CLINICAL STUDY SPONSOR"
          ],
          [
            357,
            "CDISCPILOT01",
            "AE",
            "01-705-1303",
            "AESEQ",
            "4",
            "AETRTEM",
            "TREATMENT EMERGENT FLAG",
            "Y",
            "DERIVED",
            "CLINICAL STUDY SPONSOR"
          ],
          [
            358,
            "CDISCPILOT01",
            "AE",
            "01-705-1310",
            "AESEQ",
            "1",
            "AETRTEM",
            "TREATMENT EMERGENT FLAG",
            "Y",
            "DERIVED",
            "CLINICAL STUDY SPONSOR"
          ],
          [
            359,
            "CDISCPILOT01",
            "AE",
            "01-705-1310",
            "AESEQ",
            "2",
            "AETRTEM",
            "TREATMENT EMERGENT FLAG",
            "Y",
            "DERIVED",
            "CLINICAL STUDY SPONSOR"
          ],
          [
            360,
            "CDISCPILOT01",
            "AE",
            "01-705-1349",
            "AESEQ",
            "1",
            "AETRTEM",
            "TREATMENT EMERGENT FLAG",
            "Y",
            "DERIVED",
            "CLINICAL STUDY SPONSOR"
          ],
          [
            361,
            "CDISCPILOT01",
            "AE",
            "01-705-1349",
            "AESEQ",
            "2",
            "AETRTEM",
            "TREATMENT EMERGENT FLAG",
            "Y",
            "DERIVED",
            "CLINICAL STUDY SPONSOR"
          ],
          [
            362,
            "CDISCPILOT01",
            "AE",
            "01-705-1349",
            "AESEQ",
            "3",
            "AETRTEM",
            "TREATMENT EMERGENT FLAG",
            "Y",
            "DERIVED",
            "CLINICAL STUDY SPONSOR"
          ],
          [
            363,
            "CDISCPILOT01",
            "AE",
            "01-705-1349",
            "AESEQ",
            "4",
            "AETRTEM",
            "TREATMENT EMERGENT FLAG",
            "Y",
            "DERIVED",
            "CLINICAL STUDY SPONSOR"
          ],
          [
            364,
            "CDISCPILOT01",
            "AE",
            "01-705-1393",
            "AESEQ",
            "1",
            "AETRTEM",
            "TREATMENT EMERGENT FLAG",
            "Y",
            "DERIVED",
            "CLINICAL STUDY SPONSOR"
          ],
          [
            365,
            "CDISCPILOT01",
            "AE",
            "01-705-1393",
            "AESEQ",
            "3",
            "AETRTEM",
            "TREATMENT EMERGENT FLAG",
            "Y",
            "DERIVED",
            "CLINICAL STUDY SPONSOR"
          ],
          [
            366,
            "CDISCPILOT01",
            "AE",
            "01-705-1393",
            "AESEQ",
            "4",
            "AETRTEM",
            "TREATMENT EMERGENT FLAG",
            "N",
            "DERIVED",
            "CLINICAL STUDY SPONSOR"
          ],
          [
            367,
            "CDISCPILOT01",
            "AE",
            "01-705-1431",
            "AESEQ",
            "1",
            "AETRTEM",
            "TREATMENT EMERGENT FLAG",
            "N",
            "DERIVED",
            "CLINICAL STUDY SPONSOR"
          ],
          [
            368,
            "CDISCPILOT01",
            "AE",
            "01-705-1431",
            "AESEQ",
            "2",
            "AETRTEM",
            "TREATMENT EMERGENT FLAG",
            "Y",
            "DERIVED",
            "CLINICAL STUDY SPONSOR"
          ],
          [
            369,
            "CDISCPILOT01",
            "AE",
            "01-706-1041",
            "AESEQ",
            "1",
            "AETRTEM",
            "TREATMENT EMERGENT FLAG",
            "N",
            "DERIVED",
            "CLINICAL STUDY SPONSOR"
          ],
          [
            370,
            "CDISCPILOT01",
            "AE",
            "01-706-1041",
            "AESEQ",
            "2",
            "AETRTEM",
            "TREATMENT EMERGENT FLAG",
            "Y",
            "DERIVED",
            "CLINICAL STUDY SPONSOR"
          ],
          [
            371,
            "CDISCPILOT01",
            "AE",
            "01-706-1041",
            "AESEQ",
            "5",
            "AETRTEM",
            "TREATMENT EMERGENT FLAG",
            "Y",
            "DERIVED",
            "CLINICAL STUDY SPONSOR"
          ],
          [
            372,
            "CDISCPILOT01",
            "AE",
            "01-706-1041",
            "AESEQ",
            "7",
            "AETRTEM",
            "TREATMENT EMERGENT FLAG",
            "N",
            "DERIVED",
            "CLINICAL STUDY SPONSOR"
          ],
          [
            373,
            "CDISCPILOT01",
            "AE",
            "01-706-1041",
            "AESEQ",
            "8",
            "AETRTEM",
            "TREATMENT EMERGENT FLAG",
            "Y",
            "DERIVED",
            "CLINICAL STUDY SPONSOR"
          ],
          [
            374,
            "CDISCPILOT01",
            "AE",
            "01-706-1041",
            "AESEQ",
            "9",
            "AETRTEM",
            "TREATMENT EMERGENT FLAG",
            "Y",
            "DERIVED",
            "CLINICAL STUDY SPONSOR"
          ],
          [
            375,
            "CDISCPILOT01",
            "AE",
            "01-706-1049",
            "AESEQ",
            "1",
            "AETRTEM",
            "TREATMENT EMERGENT FLAG",
            "Y",
            "DERIVED",
            "CLINICAL STUDY SPONSOR"
          ],
          [
            376,
            "CDISCPILOT01",
            "AE",
            "01-706-1049",
            "AESEQ",
            "2",
            "AETRTEM",
            "TREATMENT EMERGENT FLAG",
            "Y",
            "DERIVED",
            "CLINICAL STUDY SPONSOR"
          ],
          [
            377,
            "CDISCPILOT01",
            "AE",
            "01-706-1384",
            "AESEQ",
            "10",
            "AETRTEM",
            "TREATMENT EMERGENT FLAG",
            "Y",
            "DERIVED",
            "CLINICAL STUDY SPONSOR"
          ],
          [
            378,
            "CDISCPILOT01",
            "AE",
            "01-706-1384",
            "AESEQ",
            "6",
            "AETRTEM",
            "TREATMENT EMERGENT FLAG",
            "Y",
            "DERIVED",
            "CLINICAL STUDY SPONSOR"
          ],
          [
            379,
            "CDISCPILOT01",
            "AE",
            "01-706-1384",
            "AESEQ",
            "7",
            "AETRTEM",
            "TREATMENT EMERGENT FLAG",
            "Y",
            "DERIVED",
            "CLINICAL STUDY SPONSOR"
          ],
          [
            380,
            "CDISCPILOT01",
            "AE",
            "01-706-1384",
            "AESEQ",
            "8",
            "AETRTEM",
            "TREATMENT EMERGENT FLAG",
            "Y",
            "DERIVED",
            "CLINICAL STUDY SPONSOR"
          ],
          [
            381,
            "CDISCPILOT01",
            "AE",
            "01-706-1384",
            "AESEQ",
            "9",
            "AETRTEM",
            "TREATMENT EMERGENT FLAG",
            "Y",
            "DERIVED",
            "CLINICAL STUDY SPONSOR"
          ],
          [
            382,
            "CDISCPILOT01",
            "AE",
            "01-707-1206",
            "AESEQ",
            "4",
            "AETRTEM",
            "TREATMENT EMERGENT FLAG",
            "Y",
            "DERIVED",
            "CLINICAL STUDY SPONSOR"
          ],
          [
            383,
            "CDISCPILOT01",
            "AE",
            "01-707-1206",
            "AESEQ",
            "5",
            "AETRTEM",
            "TREATMENT EMERGENT FLAG",
            "Y",
            "DERIVED",
            "CLINICAL STUDY SPONSOR"
          ],
          [
            384,
            "CDISCPILOT01",
            "AE",
            "01-707-1206",
            "AESEQ",
            "6",
            "AETRTEM",
            "TREATMENT EMERGENT FLAG",
            "Y",
            "DERIVED",
            "CLINICAL STUDY SPONSOR"
          ],
          [
            385,
            "CDISCPILOT01",
            "AE",
            "01-707-1206",
            "AESEQ",
            "8",
            "AETRTEM",
            "TREATMENT EMERGENT FLAG",
            "Y",
            "DERIVED",
            "CLINICAL STUDY SPONSOR"
          ],
          [
            386,
            "CDISCPILOT01",
            "AE",
            "01-708-1019",
            "AESEQ",
            "1",
            "AETRTEM",
            "TREATMENT EMERGENT FLAG",
            "Y",
            "DERIVED",
            "CLINICAL STUDY SPONSOR"
          ],
          [
            387,
            "CDISCPILOT01",
            "AE",
            "01-708-1019",
            "AESEQ",
            "2",
            "AETRTEM",
            "TREATMENT EMERGENT FLAG",
            "Y",
            "DERIVED",
            "CLINICAL STUDY SPONSOR"
          ],
          [
            388,
            "CDISCPILOT01",
            "AE",
            "01-708-1019",
            "AESEQ",
            "3",
            "AETRTEM",
            "TREATMENT EMERGENT FLAG",
            "Y",
            "DERIVED",
            "CLINICAL STUDY SPONSOR"
          ],
          [
            389,
            "CDISCPILOT01",
            "AE",
            "01-708-1019",
            "AESEQ",
            "4",
            "AETRTEM",
            "TREATMENT EMERGENT FLAG",
            "Y",
            "DERIVED",
            "CLINICAL STUDY SPONSOR"
          ],
          [
            390,
            "CDISCPILOT01",
            "AE",
            "01-708-1019",
            "AESEQ",
            "5",
            "AETRTEM",
            "TREATMENT EMERGENT FLAG",
            "Y",
            "DERIVED",
            "CLINICAL STUDY SPONSOR"
          ],
          [
            391,
            "CDISCPILOT01",
            "AE",
            "01-708-1032",
            "AESEQ",
            "1",
            "AETRTEM",
            "TREATMENT EMERGENT FLAG",
            "Y",
            "DERIVED",
            "CLINICAL STUDY SPONSOR"
          ],
          [
            392,
            "CDISCPILOT01",
            "AE",
            "01-708-1084",
            "AESEQ",
            "2",
            "AETRTEM",
            "TREATMENT EMERGENT FLAG",
            "Y",
            "DERIVED",
            "CLINICAL STUDY SPONSOR"
          ],
          [
            393,
            "CDISCPILOT01",
            "AE",
            "01-708-1084",
            "AESEQ",
            "4",
            "AETRTEM",
            "TREATMENT EMERGENT FLAG",
            "Y",
            "DERIVED",
            "CLINICAL STUDY SPONSOR"
          ],
          [
            394,
            "CDISCPILOT01",
            "AE",
            "01-708-1084",
            "AESEQ",
            "6",
            "AETRTEM",
            "TREATMENT EMERGENT FLAG",
            "Y",
            "DERIVED",
            "CLINICAL STUDY SPONSOR"
          ],
          [
            395,
            "CDISCPILOT01",
            "AE",
            "01-708-1087",
            "AESEQ",
            "2",
            "AETRTEM",
            "TREATMENT EMERGENT FLAG",
            "Y",
            "DERIVED",
            "CLINICAL STUDY SPONSOR"
          ],
          [
            396,
            "CDISCPILOT01",
            "AE",
            "01-708-1087",
            "AESEQ",
            "3",
            "AETRTEM",
            "TREATMENT EMERGENT FLAG",
            "Y",
            "DERIVED",
            "CLINICAL STUDY SPONSOR"
          ],
          [
            397,
            "CDISCPILOT01",
            "AE",
            "01-708-1087",
            "AESEQ",
            "4",
            "AETRTEM",
            "TREATMENT EMERGENT FLAG",
            "Y",
            "DERIVED",
            "CLINICAL STUDY SPONSOR"
          ],
          [
            398,
            "CDISCPILOT01",
            "AE",
            "01-708-1087",
            "AESEQ",
            "6",
            "AETRTEM",
            "TREATMENT EMERGENT FLAG",
            "Y",
            "DERIVED",
            "CLINICAL STUDY SPONSOR"
          ],
          [
            399,
            "CDISCPILOT01",
            "AE",
            "01-708-1158",
            "AESEQ",
            "1",
            "AETRTEM",
            "TREATMENT EMERGENT FLAG",
            "Y",
            "DERIVED",
            "CLINICAL STUDY SPONSOR"
          ],
          [
            400,
            "CDISCPILOT01",
            "AE",
            "01-708-1158",
            "AESEQ",
            "2",
            "AETRTEM",
            "TREATMENT EMERGENT FLAG",
            "Y",
            "DERIVED",
            "CLINICAL STUDY SPONSOR"
          ],
          [
            401,
            "CDISCPILOT01",
            "AE",
            "01-708-1178",
            "AESEQ",
            "1",
            "AETRTEM",
            "TREATMENT EMERGENT FLAG",
            "N",
            "DERIVED",
            "CLINICAL STUDY SPONSOR"
          ],
          [
            402,
            "CDISCPILOT01",
            "AE",
            "01-708-1178",
            "AESEQ",
            "2",
            "AETRTEM",
            "TREATMENT EMERGENT FLAG",
            "Y",
            "DERIVED",
            "CLINICAL STUDY SPONSOR"
          ],
          [
            403,
            "CDISCPILOT01",
            "AE",
            "01-708-1178",
            "AESEQ",
            "4",
            "AETRTEM",
            "TREATMENT EMERGENT FLAG",
            "Y",
            "DERIVED",
            "CLINICAL STUDY SPONSOR"
          ],
          [
            404,
            "CDISCPILOT01",
            "AE",
            "01-708-1178",
            "AESEQ",
            "5",
            "AETRTEM",
            "TREATMENT EMERGENT FLAG",
            "Y",
            "DERIVED",
            "CLINICAL STUDY SPONSOR"
          ],
          [
            405,
            "CDISCPILOT01",
            "AE",
            "01-708-1178",
            "AESEQ",
            "6",
            "AETRTEM",
            "TREATMENT EMERGENT FLAG",
            "Y",
            "DERIVED",
            "CLINICAL STUDY SPONSOR"
          ],
          [
            406,
            "CDISCPILOT01",
            "AE",
            "01-708-1178",
            "AESEQ",
            "7",
            "AETRTEM",
            "TREATMENT EMERGENT FLAG",
            "Y",
            "DERIVED",
            "CLINICAL STUDY SPONSOR"
          ],
          [
            407,
            "CDISCPILOT01",
            "AE",
            "01-708-1178",
            "AESEQ",
            "8",
            "AETRTEM",
            "TREATMENT EMERGENT FLAG",
            "Y",
            "DERIVED",
            "CLINICAL STUDY SPONSOR"
          ],
          [
            408,
            "CDISCPILOT01",
            "AE",
            "01-708-1178",
            "AESEQ",
            "9",
            "AETRTEM",
            "TREATMENT EMERGENT FLAG",
            "Y",
            "DERIVED",
            "CLINICAL STUDY SPONSOR"
          ],
          [
            409,
            "CDISCPILOT01",
            "AE",
            "01-708-1213",
            "AESEQ",
            "2",
            "AETRTEM",
            "TREATMENT EMERGENT FLAG",
            "Y",
            "DERIVED",
            "CLINICAL STUDY SPONSOR"
          ],
          [
            410,
            "CDISCPILOT01",
            "AE",
            "01-708-1216",
            "AESEQ",
            "1",
            "AETRTEM",
            "TREATMENT EMERGENT FLAG",
            "Y",
            "DERIVED",
            "CLINICAL STUDY SPONSOR"
          ],
          [
            411,
            "CDISCPILOT01",
            "AE",
            "01-708-1216",
            "AESEQ",
            "3",
            "AETRTEM",
            "TREATMENT EMERGENT FLAG",
            "Y",
            "DERIVED",
            "CLINICAL STUDY SPONSOR"
          ],
          [
            412,
            "CDISCPILOT01",
            "AE",
            "01-708-1216",
            "AESEQ",
            "4",
            "AETRTEM",
            "TREATMENT EMERGENT FLAG",
            "Y",
            "DERIVED",
            "CLINICAL STUDY SPONSOR"
          ],
          [
            413,
            "CDISCPILOT01",
            "AE",
            "01-708-1253",
            "AESEQ",
            "4",
            "AETRTEM",
            "TREATMENT EMERGENT FLAG",
            "N",
            "DERIVED",
            "CLINICAL STUDY SPONSOR"
          ],
          [
            414,
            "CDISCPILOT01",
            "AE",
            "01-708-1253",
            "AESEQ",
            "5",
            "AETRTEM",
            "TREATMENT EMERGENT FLAG",
            "N",
            "DERIVED",
            "CLINICAL STUDY SPONSOR"
          ],
          [
            415,
            "CDISCPILOT01",
            "AE",
            "01-708-1253",
            "AESEQ",
            "6",
            "AETRTEM",
            "TREATMENT EMERGENT FLAG",
            "Y",
            "DERIVED",
            "CLINICAL STUDY SPONSOR"
          ],
          [
            416,
            "CDISCPILOT01",
            "AE",
            "01-708-1253",
            "AESEQ",
            "8",
            "AETRTEM",
            "TREATMENT EMERGENT FLAG",
            "Y",
            "DERIVED",
            "CLINICAL STUDY SPONSOR"
          ],
          [
            417,
            "CDISCPILOT01",
            "AE",
            "01-708-1272",
            "AESEQ",
            "1",
            "AETRTEM",
            "TREATMENT EMERGENT FLAG",
            "Y",
            "DERIVED",
            "CLINICAL STUDY SPONSOR"
          ],
          [
            418,
            "CDISCPILOT01",
            "AE",
            "01-708-1272",
            "AESEQ",
            "10",
            "AETRTEM",
            "TREATMENT EMERGENT FLAG",
            "Y",
            "DERIVED",
            "CLINICAL STUDY SPONSOR"
          ],
          [
            419,
            "CDISCPILOT01",
            "AE",
            "01-708-1272",
            "AESEQ",
            "11",
            "AETRTEM",
            "TREATMENT EMERGENT FLAG",
            "Y",
            "DERIVED",
            "CLINICAL STUDY SPONSOR"
          ],
          [
            420,
            "CDISCPILOT01",
            "AE",
            "01-708-1272",
            "AESEQ",
            "12",
            "AETRTEM",
            "TREATMENT EMERGENT FLAG",
            "Y",
            "DERIVED",
            "CLINICAL STUDY SPONSOR"
          ],
          [
            421,
            "CDISCPILOT01",
            "AE",
            "01-708-1272",
            "AESEQ",
            "2",
            "AETRTEM",
            "TREATMENT EMERGENT FLAG",
            "Y",
            "DERIVED",
            "CLINICAL STUDY SPONSOR"
          ],
          [
            422,
            "CDISCPILOT01",
            "AE",
            "01-708-1272",
            "AESEQ",
            "4",
            "AETRTEM",
            "TREATMENT EMERGENT FLAG",
            "Y",
            "DERIVED",
            "CLINICAL STUDY SPONSOR"
          ],
          [
            423,
            "CDISCPILOT01",
            "AE",
            "01-708-1272",
            "AESEQ",
            "8",
            "AETRTEM",
            "TREATMENT EMERGENT FLAG",
            "Y",
            "DERIVED",
            "CLINICAL STUDY SPONSOR"
          ],
          [
            424,
            "CDISCPILOT01",
            "AE",
            "01-708-1272",
            "AESEQ",
            "9",
            "AETRTEM",
            "TREATMENT EMERGENT FLAG",
            "Y",
            "DERIVED",
            "CLINICAL STUDY SPONSOR"
          ],
          [
            425,
            "CDISCPILOT01",
            "AE",
            "01-708-1286",
            "AESEQ",
            "1",
            "AETRTEM",
            "TREATMENT EMERGENT FLAG",
            "Y",
            "DERIVED",
            "CLINICAL STUDY SPONSOR"
          ],
          [
            426,
            "CDISCPILOT01",
            "AE",
            "01-708-1286",
            "AESEQ",
            "2",
            "AETRTEM",
            "TREATMENT EMERGENT FLAG",
            "Y",
            "DERIVED",
            "CLINICAL STUDY SPONSOR"
          ],
          [
            427,
            "CDISCPILOT01",
            "AE",
            "01-708-1286",
            "AESEQ",
            "3",
            "AETRTEM",
            "TREATMENT EMERGENT FLAG",
            "Y",
            "DERIVED",
            "CLINICAL STUDY SPONSOR"
          ],
          [
            428,
            "CDISCPILOT01",
            "AE",
            "01-708-1286",
            "AESEQ",
            "4",
            "AETRTEM",
            "TREATMENT EMERGENT FLAG",
            "Y",
            "DERIVED",
            "CLINICAL STUDY SPONSOR"
          ],
          [
            429,
            "CDISCPILOT01",
            "AE",
            "01-708-1296",
            "AESEQ",
            "2",
            "AETRTEM",
            "TREATMENT EMERGENT FLAG",
            "Y",
            "DERIVED",
            "CLINICAL STUDY SPONSOR"
          ],
          [
            430,
            "CDISCPILOT01",
            "AE",
            "01-708-1296",
            "AESEQ",
            "4",
            "AETRTEM",
            "TREATMENT EMERGENT FLAG",
            "Y",
            "DERIVED",
            "CLINICAL STUDY SPONSOR"
          ],
          [
            431,
            "CDISCPILOT01",
            "AE",
            "01-708-1296",
            "AESEQ",
            "6",
            "AETRTEM",
            "TREATMENT EMERGENT FLAG",
            "Y",
            "DERIVED",
            "CLINICAL STUDY SPONSOR"
          ],
          [
            432,
            "CDISCPILOT01",
            "AE",
            "01-708-1296",
            "AESEQ",
            "7",
            "AETRTEM",
            "TREATMENT EMERGENT FLAG",
            "Y",
            "DERIVED",
            "CLINICAL STUDY SPONSOR"
          ],
          [
            433,
            "CDISCPILOT01",
            "AE",
            "01-708-1297",
            "AESEQ",
            "1",
            "AETRTEM",
            "TREATMENT EMERGENT FLAG",
            "Y",
            "DERIVED",
            "CLINICAL STUDY SPONSOR"
          ],
          [
            434,
            "CDISCPILOT01",
            "AE",
            "01-708-1297",
            "AESEQ",
            "2",
            "AETRTEM",
            "TREATMENT EMERGENT FLAG",
            "Y",
            "DERIVED",
            "CLINICAL STUDY SPONSOR"
          ],
          [
            435,
            "CDISCPILOT01",
            "AE",
            "01-708-1297",
            "AESEQ",
            "3",
            "AETRTEM",
            "TREATMENT EMERGENT FLAG",
            "Y",
            "DERIVED",
            "CLINICAL STUDY SPONSOR"
          ],
          [
            436,
            "CDISCPILOT01",
            "AE",
            "01-708-1316",
            "AESEQ",
            "1",
            "AETRTEM",
            "TREATMENT EMERGENT FLAG",
            "Y",
            "DERIVED",
            "CLINICAL STUDY SPONSOR"
          ],
          [
            437,
            "CDISCPILOT01",
            "AE",
            "01-708-1316",
            "AESEQ",
            "2",
            "AETRTEM",
            "TREATMENT EMERGENT FLAG",
            "Y",
            "DERIVED",
            "CLINICAL STUDY SPONSOR"
          ],
          [
            438,
            "CDISCPILOT01",
            "AE",
            "01-708-1336",
            "AESEQ",
            "1",
            "AETRTEM",
            "TREATMENT EMERGENT FLAG",
            "Y",
            "DERIVED",
            "CLINICAL STUDY SPONSOR"
          ],
          [
            439,
            "CDISCPILOT01",
            "AE",
            "01-708-1336",
            "AESEQ",
            "2",
            "AETRTEM",
            "TREATMENT EMERGENT FLAG",
            "Y",
            "DERIVED",
            "CLINICAL STUDY SPONSOR"
          ],
          [
            440,
            "CDISCPILOT01",
            "AE",
            "01-708-1336",
            "AESEQ",
            "3",
            "AETRTEM",
            "TREATMENT EMERGENT FLAG",
            "Y",
            "DERIVED",
            "CLINICAL STUDY SPONSOR"
          ],
          [
            441,
            "CDISCPILOT01",
            "AE",
            "01-708-1336",
            "AESEQ",
            "6",
            "AETRTEM",
            "TREATMENT EMERGENT FLAG",
            "Y",
            "DERIVED",
            "CLINICAL STUDY SPONSOR"
          ],
          [
            442,
            "CDISCPILOT01",
            "AE",
            "01-708-1336",
            "AESEQ",
            "7",
            "AETRTEM",
            "TREATMENT EMERGENT FLAG",
            "Y",
            "DERIVED",
            "CLINICAL STUDY SPONSOR"
          ],
          [
            443,
            "CDISCPILOT01",
            "AE",
            "01-708-1347",
            "AESEQ",
            "5",
            "AETRTEM",
            "TREATMENT EMERGENT FLAG",
            "Y",
            "DERIVED",
            "CLINICAL STUDY SPONSOR"
          ],
          [
            444,
            "CDISCPILOT01",
            "AE",
            "01-708-1347",
            "AESEQ",
            "6",
            "AETRTEM",
            "TREATMENT EMERGENT FLAG",
            "Y",
            "DERIVED",
            "CLINICAL STUDY SPONSOR"
          ],
          [
            445,
            "CDISCPILOT01",
            "AE",
            "01-708-1347",
            "AESEQ",
            "7",
            "AETRTEM",
            "TREATMENT EMERGENT FLAG",
            "Y",
            "DERIVED",
            "CLINICAL STUDY SPONSOR"
          ],
          [
            446,
            "CDISCPILOT01",
            "AE",
            "01-708-1347",
            "AESEQ",
            "8",
            "AETRTEM",
            "TREATMENT EMERGENT FLAG",
            "Y",
            "DERIVED",
            "CLINICAL STUDY SPONSOR"
          ],
          [
            447,
            "CDISCPILOT01",
            "AE",
            "01-708-1348",
            "AESEQ",
            "2",
            "AETRTEM",
            "TREATMENT EMERGENT FLAG",
            "Y",
            "DERIVED",
            "CLINICAL STUDY SPONSOR"
          ],
          [
            448,
            "CDISCPILOT01",
            "AE",
            "01-708-1348",
            "AESEQ",
            "3",
            "AETRTEM",
            "TREATMENT EMERGENT FLAG",
            "Y",
            "DERIVED",
            "CLINICAL STUDY SPONSOR"
          ],
          [
            449,
            "CDISCPILOT01",
            "AE",
            "01-708-1353",
            "AESEQ",
            "2",
            "AETRTEM",
            "TREATMENT EMERGENT FLAG",
            "Y",
            "DERIVED",
            "CLINICAL STUDY SPONSOR"
          ],
          [
            450,
            "CDISCPILOT01",
            "AE",
            "01-708-1353",
            "AESEQ",
            "3",
            "AETRTEM",
            "TREATMENT EMERGENT FLAG",
            "Y",
            "DERIVED",
            "CLINICAL STUDY SPONSOR"
          ],
          [
            451,
            "CDISCPILOT01",
            "AE",
            "01-708-1372",
            "AESEQ",
            "1",
            "AETRTEM",
            "TREATMENT EMERGENT FLAG",
            "N",
            "DERIVED",
            "CLINICAL STUDY SPONSOR"
          ],
          [
            452,
            "CDISCPILOT01",
            "AE",
            "01-708-1406",
            "AESEQ",
            "2",
            "AETRTEM",
            "TREATMENT EMERGENT FLAG",
            "Y",
            "DERIVED",
            "CLINICAL STUDY SPONSOR"
          ],
          [
            453,
            "CDISCPILOT01",
            "AE",
            "01-708-1428",
            "AESEQ",
            "1",
            "AETRTEM",
            "TREATMENT EMERGENT FLAG",
            "Y",
            "DERIVED",
            "CLINICAL STUDY SPONSOR"
          ],
          [
            454,
            "CDISCPILOT01",
            "AE",
            "01-708-1428",
            "AESEQ",
            "2",
            "AETRTEM",
            "TREATMENT EMERGENT FLAG",
            "Y",
            "DERIVED",
            "CLINICAL STUDY SPONSOR"
          ],
          [
            455,
            "CDISCPILOT01",
            "AE",
            "01-708-1428",
            "AESEQ",
            "3",
            "AETRTEM",
            "TREATMENT EMERGENT FLAG",
            "Y",
            "DERIVED",
            "CLINICAL STUDY SPONSOR"
          ],
          [
            456,
            "CDISCPILOT01",
            "AE",
            "01-708-1428",
            "AESEQ",
            "4",
            "AETRTEM",
            "TREATMENT EMERGENT FLAG",
            "Y",
            "DERIVED",
            "CLINICAL STUDY SPONSOR"
          ],
          [
            457,
            "CDISCPILOT01",
            "AE",
            "01-708-1428",
            "AESEQ",
            "5",
            "AETRTEM",
            "TREATMENT EMERGENT FLAG",
            "Y",
            "DERIVED",
            "CLINICAL STUDY SPONSOR"
          ],
          [
            458,
            "CDISCPILOT01",
            "AE",
            "01-708-1428",
            "AESEQ",
            "6",
            "AETRTEM",
            "TREATMENT EMERGENT FLAG",
            "Y",
            "DERIVED",
            "CLINICAL STUDY SPONSOR"
          ],
          [
            459,
            "CDISCPILOT01",
            "AE",
            "01-708-1428",
            "AESEQ",
            "7",
            "AETRTEM",
            "TREATMENT EMERGENT FLAG",
            "Y",
            "DERIVED",
            "CLINICAL STUDY SPONSOR"
          ],
          [
            460,
            "CDISCPILOT01",
            "AE",
            "01-709-1007",
            "AESEQ",
            "2",
            "AETRTEM",
            "TREATMENT EMERGENT FLAG",
            "Y",
            "DERIVED",
            "CLINICAL STUDY SPONSOR"
          ],
          [
            461,
            "CDISCPILOT01",
            "AE",
            "01-709-1007",
            "AESEQ",
            "3",
            "AETRTEM",
            "TREATMENT EMERGENT FLAG",
            "Y",
            "DERIVED",
            "CLINICAL STUDY SPONSOR"
          ],
          [
            462,
            "CDISCPILOT01",
            "AE",
            "01-709-1007",
            "AESEQ",
            "4",
            "AETRTEM",
            "TREATMENT EMERGENT FLAG",
            "Y",
            "DERIVED",
            "CLINICAL STUDY SPONSOR"
          ],
          [
            463,
            "CDISCPILOT01",
            "AE",
            "01-709-1020",
            "AESEQ",
            "1",
            "AETRTEM",
            "TREATMENT EMERGENT FLAG",
            "Y",
            "DERIVED",
            "CLINICAL STUDY SPONSOR"
          ],
          [
            464,
            "CDISCPILOT01",
            "AE",
            "01-709-1020",
            "AESEQ",
            "2",
            "AETRTEM",
            "TREATMENT EMERGENT FLAG",
            "Y",
            "DERIVED",
            "CLINICAL STUDY SPONSOR"
          ],
          [
            465,
            "CDISCPILOT01",
            "AE",
            "01-709-1020",
            "AESEQ",
            "3",
            "AETRTEM",
            "TREATMENT EMERGENT FLAG",
            "Y",
            "DERIVED",
            "CLINICAL STUDY SPONSOR"
          ],
          [
            466,
            "CDISCPILOT01",
            "AE",
            "01-709-1020",
            "AESEQ",
            "4",
            "AETRTEM",
            "TREATMENT EMERGENT FLAG",
            "Y",
            "DERIVED",
            "CLINICAL STUDY SPONSOR"
          ],
          [
            467,
            "CDISCPILOT01",
            "AE",
            "01-709-1029",
            "AESEQ",
            "12",
            "AETRTEM",
            "TREATMENT EMERGENT FLAG",
            "Y",
            "DERIVED",
            "CLINICAL STUDY SPONSOR"
          ],
          [
            468,
            "CDISCPILOT01",
            "AE",
            "01-709-1029",
            "AESEQ",
            "13",
            "AETRTEM",
            "TREATMENT EMERGENT FLAG",
            "Y",
            "DERIVED",
            "CLINICAL STUDY SPONSOR"
          ],
          [
            469,
            "CDISCPILOT01",
            "AE",
            "01-709-1029",
            "AESEQ",
            "14",
            "AETRTEM",
            "TREATMENT EMERGENT FLAG",
            "Y",
            "DERIVED",
            "CLINICAL STUDY SPONSOR"
          ],
          [
            470,
            "CDISCPILOT01",
            "AE",
            "01-709-1029",
            "AESEQ",
            "15",
            "AETRTEM",
            "TREATMENT EMERGENT FLAG",
            "Y",
            "DERIVED",
            "CLINICAL STUDY SPONSOR"
          ],
          [
            471,
            "CDISCPILOT01",
            "AE",
            "01-709-1029",
            "AESEQ",
            "16",
            "AETRTEM",
            "TREATMENT EMERGENT FLAG",
            "Y",
            "DERIVED",
            "CLINICAL STUDY SPONSOR"
          ],
          [
            472,
            "CDISCPILOT01",
            "AE",
            "01-709-1029",
            "AESEQ",
            "2",
            "AETRTEM",
            "TREATMENT EMERGENT FLAG",
            "Y",
            "DERIVED",
            "CLINICAL STUDY SPONSOR"
          ],
          [
            473,
            "CDISCPILOT01",
            "AE",
            "01-709-1029",
            "AESEQ",
            "4",
            "AETRTEM",
            "TREATMENT EMERGENT FLAG",
            "Y",
            "DERIVED",
            "CLINICAL STUDY SPONSOR"
          ],
          [
            474,
            "CDISCPILOT01",
            "AE",
            "01-709-1029",
            "AESEQ",
            "5",
            "AETRTEM",
            "TREATMENT EMERGENT FLAG",
            "Y",
            "DERIVED",
            "CLINICAL STUDY SPONSOR"
          ],
          [
            475,
            "CDISCPILOT01",
            "AE",
            "01-709-1029",
            "AESEQ",
            "8",
            "AETRTEM",
            "TREATMENT EMERGENT FLAG",
            "Y",
            "DERIVED",
            "CLINICAL STUDY SPONSOR"
          ],
          [
            476,
            "CDISCPILOT01",
            "AE",
            "01-709-1029",
            "AESEQ",
            "9",
            "AETRTEM",
            "TREATMENT EMERGENT FLAG",
            "Y",
            "DERIVED",
            "CLINICAL STUDY SPONSOR"
          ],
          [
            477,
            "CDISCPILOT01",
            "AE",
            "01-709-1081",
            "AESEQ",
            "1",
            "AETRTEM",
            "TREATMENT EMERGENT FLAG",
            "Y",
            "DERIVED",
            "CLINICAL STUDY SPONSOR"
          ],
          [
            478,
            "CDISCPILOT01",
            "AE",
            "01-709-1081",
            "AESEQ",
            "2",
            "AETRTEM",
            "TREATMENT EMERGENT FLAG",
            "Y",
            "DERIVED",
            "CLINICAL STUDY SPONSOR"
          ],
          [
            479,
            "CDISCPILOT01",
            "AE",
            "01-709-1088",
            "AESEQ",
            "1",
            "AETRTEM",
            "TREATMENT EMERGENT FLAG",
            "Y",
            "DERIVED",
            "CLINICAL STUDY SPONSOR"
          ],
          [
            480,
            "CDISCPILOT01",
            "AE",
            "01-709-1088",
            "AESEQ",
            "2",
            "AETRTEM",
            "TREATMENT EMERGENT FLAG",
            "Y",
            "DERIVED",
            "CLINICAL STUDY SPONSOR"
          ],
          [
            481,
            "CDISCPILOT01",
            "AE",
            "01-709-1099",
            "AESEQ",
            "2",
            "AETRTEM",
            "TREATMENT EMERGENT FLAG",
            "Y",
            "DERIVED",
            "CLINICAL STUDY SPONSOR"
          ],
          [
            482,
            "CDISCPILOT01",
            "AE",
            "01-709-1099",
            "AESEQ",
            "3",
            "AETRTEM",
            "TREATMENT EMERGENT FLAG",
            "Y",
            "DERIVED",
            "CLINICAL STUDY SPONSOR"
          ],
          [
            483,
            "CDISCPILOT01",
            "AE",
            "01-709-1099",
            "AESEQ",
            "4",
            "AETRTEM",
            "TREATMENT EMERGENT FLAG",
            "Y",
            "DERIVED",
            "CLINICAL STUDY SPONSOR"
          ],
          [
            484,
            "CDISCPILOT01",
            "AE",
            "01-709-1099",
            "AESEQ",
            "5",
            "AETRTEM",
            "TREATMENT EMERGENT FLAG",
            "Y",
            "DERIVED",
            "CLINICAL STUDY SPONSOR"
          ],
          [
            485,
            "CDISCPILOT01",
            "AE",
            "01-709-1099",
            "AESEQ",
            "6",
            "AETRTEM",
            "TREATMENT EMERGENT FLAG",
            "Y",
            "DERIVED",
            "CLINICAL STUDY SPONSOR"
          ],
          [
            486,
            "CDISCPILOT01",
            "AE",
            "01-709-1099",
            "AESEQ",
            "7",
            "AETRTEM",
            "TREATMENT EMERGENT FLAG",
            "Y",
            "DERIVED",
            "CLINICAL STUDY SPONSOR"
          ],
          [
            487,
            "CDISCPILOT01",
            "AE",
            "01-709-1099",
            "AESEQ",
            "8",
            "AETRTEM",
            "TREATMENT EMERGENT FLAG",
            "Y",
            "DERIVED",
            "CLINICAL STUDY SPONSOR"
          ],
          [
            488,
            "CDISCPILOT01",
            "AE",
            "01-709-1102",
            "AESEQ",
            "1",
            "AETRTEM",
            "TREATMENT EMERGENT FLAG",
            "Y",
            "DERIVED",
            "CLINICAL STUDY SPONSOR"
          ],
          [
            489,
            "CDISCPILOT01",
            "AE",
            "01-709-1102",
            "AESEQ",
            "2",
            "AETRTEM",
            "TREATMENT EMERGENT FLAG",
            "Y",
            "DERIVED",
            "CLINICAL STUDY SPONSOR"
          ],
          [
            490,
            "CDISCPILOT01",
            "AE",
            "01-709-1102",
            "AESEQ",
            "3",
            "AETRTEM",
            "TREATMENT EMERGENT FLAG",
            "Y",
            "DERIVED",
            "CLINICAL STUDY SPONSOR"
          ],
          [
            491,
            "CDISCPILOT01",
            "AE",
            "01-709-1102",
            "AESEQ",
            "4",
            "AETRTEM",
            "TREATMENT EMERGENT FLAG",
            "Y",
            "DERIVED",
            "CLINICAL STUDY SPONSOR"
          ],
          [
            492,
            "CDISCPILOT01",
            "AE",
            "01-709-1102",
            "AESEQ",
            "5",
            "AETRTEM",
            "TREATMENT EMERGENT FLAG",
            "Y",
            "DERIVED",
            "CLINICAL STUDY SPONSOR"
          ],
          [
            493,
            "CDISCPILOT01",
            "AE",
            "01-709-1102",
            "AESEQ",
            "6",
            "AETRTEM",
            "TREATMENT EMERGENT FLAG",
            "Y",
            "DERIVED",
            "CLINICAL STUDY SPONSOR"
          ],
          [
            494,
            "CDISCPILOT01",
            "AE",
            "01-709-1168",
            "AESEQ",
            "2",
            "AETRTEM",
            "TREATMENT EMERGENT FLAG",
            "Y",
            "DERIVED",
            "CLINICAL STUDY SPONSOR"
          ],
          [
            495,
            "CDISCPILOT01",
            "AE",
            "01-709-1168",
            "AESEQ",
            "5",
            "AETRTEM",
            "TREATMENT EMERGENT FLAG",
            "Y",
            "DERIVED",
            "CLINICAL STUDY SPONSOR"
          ],
          [
            496,
            "CDISCPILOT01",
            "AE",
            "01-709-1168",
            "AESEQ",
            "6",
            "AETRTEM",
            "TREATMENT EMERGENT FLAG",
            "Y",
            "DERIVED",
            "CLINICAL STUDY SPONSOR"
          ],
          [
            497,
            "CDISCPILOT01",
            "AE",
            "01-709-1217",
            "AESEQ",
            "1",
            "AETRTEM",
            "TREATMENT EMERGENT FLAG",
            "Y",
            "DERIVED",
            "CLINICAL STUDY SPONSOR"
          ],
          [
            498,
            "CDISCPILOT01",
            "AE",
            "01-709-1217",
            "AESEQ",
            "10",
            "AETRTEM",
            "TREATMENT EMERGENT FLAG",
            "Y",
            "DERIVED",
            "CLINICAL STUDY SPONSOR"
          ],
          [
            499,
            "CDISCPILOT01",
            "AE",
            "01-709-1217",
            "AESEQ",
            "11",
            "AETRTEM",
            "TREATMENT EMERGENT FLAG",
            "Y",
            "DERIVED",
            "CLINICAL STUDY SPONSOR"
          ],
          [
            500,
            "CDISCPILOT01",
            "AE",
            "01-709-1217",
            "AESEQ",
            "2",
            "AETRTEM",
            "TREATMENT EMERGENT FLAG",
            "Y",
            "DERIVED",
            "CLINICAL STUDY SPONSOR"
          ],
          [
            501,
            "CDISCPILOT01",
            "AE",
            "01-709-1217",
            "AESEQ",
            "3",
            "AETRTEM",
            "TREATMENT EMERGENT FLAG",
            "Y",
            "DERIVED",
            "CLINICAL STUDY SPONSOR"
          ],
          [
            502,
            "CDISCPILOT01",
            "AE",
            "01-709-1217",
            "AESEQ",
            "4",
            "AETRTEM",
            "TREATMENT EMERGENT FLAG",
            "Y",
            "DERIVED",
            "CLINICAL STUDY SPONSOR"
          ],
          [
            503,
            "CDISCPILOT01",
            "AE",
            "01-709-1217",
            "AESEQ",
            "5",
            "AETRTEM",
            "TREATMENT EMERGENT FLAG",
            "Y",
            "DERIVED",
            "CLINICAL STUDY SPONSOR"
          ],
          [
            504,
            "CDISCPILOT01",
            "AE",
            "01-709-1217",
            "AESEQ",
            "7",
            "AETRTEM",
            "TREATMENT EMERGENT FLAG",
            "Y",
            "DERIVED",
            "CLINICAL STUDY SPONSOR"
          ],
          [
            505,
            "CDISCPILOT01",
            "AE",
            "01-709-1217",
            "AESEQ",
            "9",
            "AETRTEM",
            "TREATMENT EMERGENT FLAG",
            "Y",
            "DERIVED",
            "CLINICAL STUDY SPONSOR"
          ],
          [
            506,
            "CDISCPILOT01",
            "AE",
            "01-709-1238",
            "AESEQ",
            "1",
            "AETRTEM",
            "TREATMENT EMERGENT FLAG",
            "Y",
            "DERIVED",
            "CLINICAL STUDY SPONSOR"
          ],
          [
            507,
            "CDISCPILOT01",
            "AE",
            "01-709-1238",
            "AESEQ",
            "2",
            "AETRTEM",
            "TREATMENT EMERGENT FLAG",
            "Y",
            "DERIVED",
            "CLINICAL STUDY SPONSOR"
          ],
          [
            508,
            "CDISCPILOT01",
            "AE",
            "01-709-1238",
            "AESEQ",
            "3",
            "AETRTEM",
            "TREATMENT EMERGENT FLAG",
            "Y",
            "DERIVED",
            "CLINICAL STUDY SPONSOR"
          ],
          [
            509,
            "CDISCPILOT01",
            "AE",
            "01-709-1238",
            "AESEQ",
            "4",
            "AETRTEM",
            "TREATMENT EMERGENT FLAG",
            "Y",
            "DERIVED",
            "CLINICAL STUDY SPONSOR"
          ],
          [
            510,
            "CDISCPILOT01",
            "AE",
            "01-709-1238",
            "AESEQ",
            "5",
            "AETRTEM",
            "TREATMENT EMERGENT FLAG",
            "Y",
            "DERIVED",
            "CLINICAL STUDY SPONSOR"
          ],
          [
            511,
            "CDISCPILOT01",
            "AE",
            "01-709-1238",
            "AESEQ",
            "6",
            "AETRTEM",
            "TREATMENT EMERGENT FLAG",
            "Y",
            "DERIVED",
            "CLINICAL STUDY SPONSOR"
          ],
          [
            512,
            "CDISCPILOT01",
            "AE",
            "01-709-1238",
            "AESEQ",
            "7",
            "AETRTEM",
            "TREATMENT EMERGENT FLAG",
            "Y",
            "DERIVED",
            "CLINICAL STUDY SPONSOR"
          ],
          [
            513,
            "CDISCPILOT01",
            "AE",
            "01-709-1238",
            "AESEQ",
            "8",
            "AETRTEM",
            "TREATMENT EMERGENT FLAG",
            "Y",
            "DERIVED",
            "CLINICAL STUDY SPONSOR"
          ],
          [
            514,
            "CDISCPILOT01",
            "AE",
            "01-709-1259",
            "AESEQ",
            "11",
            "AETRTEM",
            "TREATMENT EMERGENT FLAG",
            "Y",
            "DERIVED",
            "CLINICAL STUDY SPONSOR"
          ],
          [
            515,
            "CDISCPILOT01",
            "AE",
            "01-709-1259",
            "AESEQ",
            "2",
            "AETRTEM",
            "TREATMENT EMERGENT FLAG",
            "Y",
            "DERIVED",
            "CLINICAL STUDY SPONSOR"
          ],
          [
            516,
            "CDISCPILOT01",
            "AE",
            "01-709-1259",
            "AESEQ",
            "3",
            "AETRTEM",
            "TREATMENT EMERGENT FLAG",
            "Y",
            "DERIVED",
            "CLINICAL STUDY SPONSOR"
          ],
          [
            517,
            "CDISCPILOT01",
            "AE",
            "01-709-1259",
            "AESEQ",
            "4",
            "AETRTEM",
            "TREATMENT EMERGENT FLAG",
            "Y",
            "DERIVED",
            "CLINICAL STUDY SPONSOR"
          ],
          [
            518,
            "CDISCPILOT01",
            "AE",
            "01-709-1259",
            "AESEQ",
            "5",
            "AETRTEM",
            "TREATMENT EMERGENT FLAG",
            "Y",
            "DERIVED",
            "CLINICAL STUDY SPONSOR"
          ],
          [
            519,
            "CDISCPILOT01",
            "AE",
            "01-709-1259",
            "AESEQ",
            "6",
            "AETRTEM",
            "TREATMENT EMERGENT FLAG",
            "Y",
            "DERIVED",
            "CLINICAL STUDY SPONSOR"
          ],
          [
            520,
            "CDISCPILOT01",
            "AE",
            "01-709-1259",
            "AESEQ",
            "7",
            "AETRTEM",
            "TREATMENT EMERGENT FLAG",
            "Y",
            "DERIVED",
            "CLINICAL STUDY SPONSOR"
          ],
          [
            521,
            "CDISCPILOT01",
            "AE",
            "01-709-1259",
            "AESEQ",
            "8",
            "AETRTEM",
            "TREATMENT EMERGENT FLAG",
            "Y",
            "DERIVED",
            "CLINICAL STUDY SPONSOR"
          ],
          [
            522,
            "CDISCPILOT01",
            "AE",
            "01-709-1259",
            "AESEQ",
            "9",
            "AETRTEM",
            "TREATMENT EMERGENT FLAG",
            "Y",
            "DERIVED",
            "CLINICAL STUDY SPONSOR"
          ],
          [
            523,
            "CDISCPILOT01",
            "AE",
            "01-709-1285",
            "AESEQ",
            "1",
            "AETRTEM",
            "TREATMENT EMERGENT FLAG",
            "Y",
            "DERIVED",
            "CLINICAL STUDY SPONSOR"
          ],
          [
            524,
            "CDISCPILOT01",
            "AE",
            "01-709-1285",
            "AESEQ",
            "4",
            "AETRTEM",
            "TREATMENT EMERGENT FLAG",
            "Y",
            "DERIVED",
            "CLINICAL STUDY SPONSOR"
          ],
          [
            525,
            "CDISCPILOT01",
            "AE",
            "01-709-1285",
            "AESEQ",
            "5",
            "AETRTEM",
            "TREATMENT EMERGENT FLAG",
            "Y",
            "DERIVED",
            "CLINICAL STUDY SPONSOR"
          ],
          [
            526,
            "CDISCPILOT01",
            "AE",
            "01-709-1285",
            "AESEQ",
            "6",
            "AETRTEM",
            "TREATMENT EMERGENT FLAG",
            "Y",
            "DERIVED",
            "CLINICAL STUDY SPONSOR"
          ],
          [
            527,
            "CDISCPILOT01",
            "AE",
            "01-709-1301",
            "AESEQ",
            "1",
            "AETRTEM",
            "TREATMENT EMERGENT FLAG",
            "Y",
            "DERIVED",
            "CLINICAL STUDY SPONSOR"
          ],
          [
            528,
            "CDISCPILOT01",
            "AE",
            "01-709-1306",
            "AESEQ",
            "1",
            "AETRTEM",
            "TREATMENT EMERGENT FLAG",
            "Y",
            "DERIVED",
            "CLINICAL STUDY SPONSOR"
          ],
          [
            529,
            "CDISCPILOT01",
            "AE",
            "01-709-1306",
            "AESEQ",
            "2",
            "AETRTEM",
            "TREATMENT EMERGENT FLAG",
            "Y",
            "DERIVED",
            "CLINICAL STUDY SPONSOR"
          ],
          [
            530,
            "CDISCPILOT01",
            "AE",
            "01-709-1306",
            "AESEQ",
            "6",
            "AETRTEM",
            "TREATMENT EMERGENT FLAG",
            "Y",
            "DERIVED",
            "CLINICAL STUDY SPONSOR"
          ],
          [
            531,
            "CDISCPILOT01",
            "AE",
            "01-709-1306",
            "AESEQ",
            "7",
            "AETRTEM",
            "TREATMENT EMERGENT FLAG",
            "Y",
            "DERIVED",
            "CLINICAL STUDY SPONSOR"
          ],
          [
            532,
            "CDISCPILOT01",
            "AE",
            "01-709-1306",
            "AESEQ",
            "8",
            "AETRTEM",
            "TREATMENT EMERGENT FLAG",
            "Y",
            "DERIVED",
            "CLINICAL STUDY SPONSOR"
          ],
          [
            533,
            "CDISCPILOT01",
            "AE",
            "01-709-1306",
            "AESEQ",
            "9",
            "AETRTEM",
            "TREATMENT EMERGENT FLAG",
            "Y",
            "DERIVED",
            "CLINICAL STUDY SPONSOR"
          ],
          [
            534,
            "CDISCPILOT01",
            "AE",
            "01-709-1309",
            "AESEQ",
            "10",
            "AETRTEM",
            "TREATMENT EMERGENT FLAG",
            "N",
            "DERIVED",
            "CLINICAL STUDY SPONSOR"
          ],
          [
            535,
            "CDISCPILOT01",
            "AE",
            "01-709-1309",
            "AESEQ",
            "11",
            "AETRTEM",
            "TREATMENT EMERGENT FLAG",
            "Y",
            "DERIVED",
            "CLINICAL STUDY SPONSOR"
          ],
          [
            536,
            "CDISCPILOT01",
            "AE",
            "01-709-1309",
            "AESEQ",
            "12",
            "AETRTEM",
            "TREATMENT EMERGENT FLAG",
            "Y",
            "DERIVED",
            "CLINICAL STUDY SPONSOR"
          ],
          [
            537,
            "CDISCPILOT01",
            "AE",
            "01-709-1309",
            "AESEQ",
            "13",
            "AETRTEM",
            "TREATMENT EMERGENT FLAG",
            "N",
            "DERIVED",
            "CLINICAL STUDY SPONSOR"
          ],
          [
            538,
            "CDISCPILOT01",
            "AE",
            "01-709-1309",
            "AESEQ",
            "14",
            "AETRTEM",
            "TREATMENT EMERGENT FLAG",
            "Y",
            "DERIVED",
            "CLINICAL STUDY SPONSOR"
          ],
          [
            539,
            "CDISCPILOT01",
            "AE",
            "01-709-1309",
            "AESEQ",
            "15",
            "AETRTEM",
            "TREATMENT EMERGENT FLAG",
            "Y",
            "DERIVED",
            "CLINICAL STUDY SPONSOR"
          ],
          [
            540,
            "CDISCPILOT01",
            "AE",
            "01-709-1309",
            "AESEQ",
            "4",
            "AETRTEM",
            "TREATMENT EMERGENT FLAG",
            "Y",
            "DERIVED",
            "CLINICAL STUDY SPONSOR"
          ],
          [
            541,
            "CDISCPILOT01",
            "AE",
            "01-709-1309",
            "AESEQ",
            "5",
            "AETRTEM",
            "TREATMENT EMERGENT FLAG",
            "Y",
            "DERIVED",
            "CLINICAL STUDY SPONSOR"
          ],
          [
            542,
            "CDISCPILOT01",
            "AE",
            "01-709-1309",
            "AESEQ",
            "6",
            "AETRTEM",
            "TREATMENT EMERGENT FLAG",
            "Y",
            "DERIVED",
            "CLINICAL STUDY SPONSOR"
          ],
          [
            543,
            "CDISCPILOT01",
            "AE",
            "01-709-1309",
            "AESEQ",
            "7",
            "AETRTEM",
            "TREATMENT EMERGENT FLAG",
            "Y",
            "DERIVED",
            "CLINICAL STUDY SPONSOR"
          ],
          [
            544,
            "CDISCPILOT01",
            "AE",
            "01-709-1309",
            "AESEQ",
            "8",
            "AETRTEM",
            "TREATMENT EMERGENT FLAG",
            "Y",
            "DERIVED",
            "CLINICAL STUDY SPONSOR"
          ],
          [
            545,
            "CDISCPILOT01",
            "AE",
            "01-709-1312",
            "AESEQ",
            "1",
            "AETRTEM",
            "TREATMENT EMERGENT FLAG",
            "Y",
            "DERIVED",
            "CLINICAL STUDY SPONSOR"
          ],
          [
            546,
            "CDISCPILOT01",
            "AE",
            "01-709-1312",
            "AESEQ",
            "2",
            "AETRTEM",
            "TREATMENT EMERGENT FLAG",
            "Y",
            "DERIVED",
            "CLINICAL STUDY SPONSOR"
          ],
          [
            547,
            "CDISCPILOT01",
            "AE",
            "01-709-1326",
            "AESEQ",
            "1",
            "AETRTEM",
            "TREATMENT EMERGENT FLAG",
            "Y",
            "DERIVED",
            "CLINICAL STUDY SPONSOR"
          ],
          [
            548,
            "CDISCPILOT01",
            "AE",
            "01-709-1326",
            "AESEQ",
            "2",
            "AETRTEM",
            "TREATMENT EMERGENT FLAG",
            "Y",
            "DERIVED",
            "CLINICAL STUDY SPONSOR"
          ],
          [
            549,
            "CDISCPILOT01",
            "AE",
            "01-709-1326",
            "AESEQ",
            "3",
            "AETRTEM",
            "TREATMENT EMERGENT FLAG",
            "Y",
            "DERIVED",
            "CLINICAL STUDY SPONSOR"
          ],
          [
            550,
            "CDISCPILOT01",
            "AE",
            "01-709-1326",
            "AESEQ",
            "4",
            "AETRTEM",
            "TREATMENT EMERGENT FLAG",
            "Y",
            "DERIVED",
            "CLINICAL STUDY SPONSOR"
          ],
          [
            551,
            "CDISCPILOT01",
            "AE",
            "01-709-1326",
            "AESEQ",
            "5",
            "AETRTEM",
            "TREATMENT EMERGENT FLAG",
            "Y",
            "DERIVED",
            "CLINICAL STUDY SPONSOR"
          ],
          [
            552,
            "CDISCPILOT01",
            "AE",
            "01-709-1326",
            "AESEQ",
            "6",
            "AETRTEM",
            "TREATMENT EMERGENT FLAG",
            "Y",
            "DERIVED",
            "CLINICAL STUDY SPONSOR"
          ],
          [
            553,
            "CDISCPILOT01",
            "AE",
            "01-709-1329",
            "AESEQ",
            "1",
            "AETRTEM",
            "TREATMENT EMERGENT FLAG",
            "Y",
            "DERIVED",
            "CLINICAL STUDY SPONSOR"
          ],
          [
            554,
            "CDISCPILOT01",
            "AE",
            "01-709-1329",
            "AESEQ",
            "2",
            "AETRTEM",
            "TREATMENT EMERGENT FLAG",
            "Y",
            "DERIVED",
            "CLINICAL STUDY SPONSOR"
          ],
          [
            555,
            "CDISCPILOT01",
            "AE",
            "01-709-1339",
            "AESEQ",
            "1",
            "AETRTEM",
            "TREATMENT EMERGENT FLAG",
            "N",
            "DERIVED",
            "CLINICAL STUDY SPONSOR"
          ],
          [
            556,
            "CDISCPILOT01",
            "AE",
            "01-709-1339",
            "AESEQ",
            "2",
            "AETRTEM",
            "TREATMENT EMERGENT FLAG",
            "Y",
            "DERIVED",
            "CLINICAL STUDY SPONSOR"
          ],
          [
            557,
            "CDISCPILOT01",
            "AE",
            "01-709-1424",
            "AESEQ",
            "1",
            "AETRTEM",
            "TREATMENT EMERGENT FLAG",
            "Y",
            "DERIVED",
            "CLINICAL STUDY SPONSOR"
          ],
          [
            558,
            "CDISCPILOT01",
            "AE",
            "01-710-1002",
            "AESEQ",
            "2",
            "AETRTEM",
            "TREATMENT EMERGENT FLAG",
            "Y",
            "DERIVED",
            "CLINICAL STUDY SPONSOR"
          ],
          [
            559,
            "CDISCPILOT01",
            "AE",
            "01-710-1006",
            "AESEQ",
            "1",
            "AETRTEM",
            "TREATMENT EMERGENT FLAG",
            "Y",
            "DERIVED",
            "CLINICAL STUDY SPONSOR"
          ],
          [
            560,
            "CDISCPILOT01",
            "AE",
            "01-710-1006",
            "AESEQ",
            "10",
            "AETRTEM",
            "TREATMENT EMERGENT FLAG",
            "Y",
            "DERIVED",
            "CLINICAL STUDY SPONSOR"
          ],
          [
            561,
            "CDISCPILOT01",
            "AE",
            "01-710-1006",
            "AESEQ",
            "11",
            "AETRTEM",
            "TREATMENT EMERGENT FLAG",
            "Y",
            "DERIVED",
            "CLINICAL STUDY SPONSOR"
          ],
          [
            562,
            "CDISCPILOT01",
            "AE",
            "01-710-1006",
            "AESEQ",
            "12",
            "AETRTEM",
            "TREATMENT EMERGENT FLAG",
            "Y",
            "DERIVED",
            "CLINICAL STUDY SPONSOR"
          ],
          [
            563,
            "CDISCPILOT01",
            "AE",
            "01-710-1006",
            "AESEQ",
            "2",
            "AETRTEM",
            "TREATMENT EMERGENT FLAG",
            "Y",
            "DERIVED",
            "CLINICAL STUDY SPONSOR"
          ],
          [
            564,
            "CDISCPILOT01",
            "AE",
            "01-710-1006",
            "AESEQ",
            "3",
            "AETRTEM",
            "TREATMENT EMERGENT FLAG",
            "Y",
            "DERIVED",
            "CLINICAL STUDY SPONSOR"
          ],
          [
            565,
            "CDISCPILOT01",
            "AE",
            "01-710-1006",
            "AESEQ",
            "4",
            "AETRTEM",
            "TREATMENT EMERGENT FLAG",
            "Y",
            "DERIVED",
            "CLINICAL STUDY SPONSOR"
          ],
          [
            566,
            "CDISCPILOT01",
            "AE",
            "01-710-1006",
            "AESEQ",
            "5",
            "AETRTEM",
            "TREATMENT EMERGENT FLAG",
            "Y",
            "DERIVED",
            "CLINICAL STUDY SPONSOR"
          ],
          [
            567,
            "CDISCPILOT01",
            "AE",
            "01-710-1006",
            "AESEQ",
            "6",
            "AETRTEM",
            "TREATMENT EMERGENT FLAG",
            "Y",
            "DERIVED",
            "CLINICAL STUDY SPONSOR"
          ],
          [
            568,
            "CDISCPILOT01",
            "AE",
            "01-710-1006",
            "AESEQ",
            "7",
            "AETRTEM",
            "TREATMENT EMERGENT FLAG",
            "Y",
            "DERIVED",
            "CLINICAL STUDY SPONSOR"
          ],
          [
            569,
            "CDISCPILOT01",
            "AE",
            "01-710-1006",
            "AESEQ",
            "9",
            "AETRTEM",
            "TREATMENT EMERGENT FLAG",
            "Y",
            "DERIVED",
            "CLINICAL STUDY SPONSOR"
          ],
          [
            570,
            "CDISCPILOT01",
            "AE",
            "01-710-1021",
            "AESEQ",
            "1",
            "AETRTEM",
            "TREATMENT EMERGENT FLAG",
            "Y",
            "DERIVED",
            "CLINICAL STUDY SPONSOR"
          ],
          [
            571,
            "CDISCPILOT01",
            "AE",
            "01-710-1021",
            "AESEQ",
            "3",
            "AETRTEM",
            "TREATMENT EMERGENT FLAG",
            "Y",
            "DERIVED",
            "CLINICAL STUDY SPONSOR"
          ],
          [
            572,
            "CDISCPILOT01",
            "AE",
            "01-710-1027",
            "AESEQ",
            "3",
            "AETRTEM",
            "TREATMENT EMERGENT FLAG",
            "Y",
            "DERIVED",
            "CLINICAL STUDY SPONSOR"
          ],
          [
            573,
            "CDISCPILOT01",
            "AE",
            "01-710-1027",
            "AESEQ",
            "4",
            "AETRTEM",
            "TREATMENT EMERGENT FLAG",
            "Y",
            "DERIVED",
            "CLINICAL STUDY SPONSOR"
          ],
          [
            574,
            "CDISCPILOT01",
            "AE",
            "01-710-1045",
            "AESEQ",
            "1",
            "AETRTEM",
            "TREATMENT EMERGENT FLAG",
            "Y",
            "DERIVED",
            "CLINICAL STUDY SPONSOR"
          ],
          [
            575,
            "CDISCPILOT01",
            "AE",
            "01-710-1045",
            "AESEQ",
            "10",
            "AETRTEM",
            "TREATMENT EMERGENT FLAG",
            "Y",
            "DERIVED",
            "CLINICAL STUDY SPONSOR"
          ],
          [
            576,
            "CDISCPILOT01",
            "AE",
            "01-710-1045",
            "AESEQ",
            "11",
            "AETRTEM",
            "TREATMENT EMERGENT FLAG",
            "Y",
            "DERIVED",
            "CLINICAL STUDY SPONSOR"
          ],
          [
            577,
            "CDISCPILOT01",
            "AE",
            "01-710-1045",
            "AESEQ",
            "12",
            "AETRTEM",
            "TREATMENT EMERGENT FLAG",
            "Y",
            "DERIVED",
            "CLINICAL STUDY SPONSOR"
          ],
          [
            578,
            "CDISCPILOT01",
            "AE",
            "01-710-1045",
            "AESEQ",
            "13",
            "AETRTEM",
            "TREATMENT EMERGENT FLAG",
            "Y",
            "DERIVED",
            "CLINICAL STUDY SPONSOR"
          ],
          [
            579,
            "CDISCPILOT01",
            "AE",
            "01-710-1045",
            "AESEQ",
            "5",
            "AETRTEM",
            "TREATMENT EMERGENT FLAG",
            "Y",
            "DERIVED",
            "CLINICAL STUDY SPONSOR"
          ],
          [
            580,
            "CDISCPILOT01",
            "AE",
            "01-710-1045",
            "AESEQ",
            "9",
            "AETRTEM",
            "TREATMENT EMERGENT FLAG",
            "Y",
            "DERIVED",
            "CLINICAL STUDY SPONSOR"
          ],
          [
            581,
            "CDISCPILOT01",
            "AE",
            "01-710-1053",
            "AESEQ",
            "3",
            "AETRTEM",
            "TREATMENT EMERGENT FLAG",
            "Y",
            "DERIVED",
            "CLINICAL STUDY SPONSOR"
          ],
          [
            582,
            "CDISCPILOT01",
            "AE",
            "01-710-1053",
            "AESEQ",
            "4",
            "AETRTEM",
            "TREATMENT EMERGENT FLAG",
            "Y",
            "DERIVED",
            "CLINICAL STUDY SPONSOR"
          ],
          [
            583,
            "CDISCPILOT01",
            "AE",
            "01-710-1060",
            "AESEQ",
            "1",
            "AETRTEM",
            "TREATMENT EMERGENT FLAG",
            "Y",
            "DERIVED",
            "CLINICAL STUDY SPONSOR"
          ],
          [
            584,
            "CDISCPILOT01",
            "AE",
            "01-710-1060",
            "AESEQ",
            "3",
            "AETRTEM",
            "TREATMENT EMERGENT FLAG",
            "Y",
            "DERIVED",
            "CLINICAL STUDY SPONSOR"
          ],
          [
            585,
            "CDISCPILOT01",
            "AE",
            "01-710-1060",
            "AESEQ",
            "4",
            "AETRTEM",
            "TREATMENT EMERGENT FLAG",
            "Y",
            "DERIVED",
            "CLINICAL STUDY SPONSOR"
          ],
          [
            586,
            "CDISCPILOT01",
            "AE",
            "01-710-1060",
            "AESEQ",
            "5",
            "AETRTEM",
            "TREATMENT EMERGENT FLAG",
            "Y",
            "DERIVED",
            "CLINICAL STUDY SPONSOR"
          ],
          [
            587,
            "CDISCPILOT01",
            "AE",
            "01-710-1060",
            "AESEQ",
            "6",
            "AETRTEM",
            "TREATMENT EMERGENT FLAG",
            "Y",
            "DERIVED",
            "CLINICAL STUDY SPONSOR"
          ],
          [
            588,
            "CDISCPILOT01",
            "AE",
            "01-710-1060",
            "AESEQ",
            "7",
            "AETRTEM",
            "TREATMENT EMERGENT FLAG",
            "Y",
            "DERIVED",
            "CLINICAL STUDY SPONSOR"
          ],
          [
            589,
            "CDISCPILOT01",
            "AE",
            "01-710-1060",
            "AESEQ",
            "8",
            "AETRTEM",
            "TREATMENT EMERGENT FLAG",
            "Y",
            "DERIVED",
            "CLINICAL STUDY SPONSOR"
          ],
          [
            590,
            "CDISCPILOT01",
            "AE",
            "01-710-1070",
            "AESEQ",
            "1",
            "AETRTEM",
            "TREATMENT EMERGENT FLAG",
            "Y",
            "DERIVED",
            "CLINICAL STUDY SPONSOR"
          ],
          [
            591,
            "CDISCPILOT01",
            "AE",
            "01-710-1070",
            "AESEQ",
            "2",
            "AETRTEM",
            "TREATMENT EMERGENT FLAG",
            "Y",
            "DERIVED",
            "CLINICAL STUDY SPONSOR"
          ],
          [
            592,
            "CDISCPILOT01",
            "AE",
            "01-710-1070",
            "AESEQ",
            "3",
            "AETRTEM",
            "TREATMENT EMERGENT FLAG",
            "Y",
            "DERIVED",
            "CLINICAL STUDY SPONSOR"
          ],
          [
            593,
            "CDISCPILOT01",
            "AE",
            "01-710-1070",
            "AESEQ",
            "4",
            "AETRTEM",
            "TREATMENT EMERGENT FLAG",
            "Y",
            "DERIVED",
            "CLINICAL STUDY SPONSOR"
          ],
          [
            594,
            "CDISCPILOT01",
            "AE",
            "01-710-1070",
            "AESEQ",
            "5",
            "AETRTEM",
            "TREATMENT EMERGENT FLAG",
            "Y",
            "DERIVED",
            "CLINICAL STUDY SPONSOR"
          ],
          [
            595,
            "CDISCPILOT01",
            "AE",
            "01-710-1070",
            "AESEQ",
            "6",
            "AETRTEM",
            "TREATMENT EMERGENT FLAG",
            "Y",
            "DERIVED",
            "CLINICAL STUDY SPONSOR"
          ],
          [
            596,
            "CDISCPILOT01",
            "AE",
            "01-710-1077",
            "AESEQ",
            "1",
            "AETRTEM",
            "TREATMENT EMERGENT FLAG",
            "Y",
            "DERIVED",
            "CLINICAL STUDY SPONSOR"
          ],
          [
            597,
            "CDISCPILOT01",
            "AE",
            "01-710-1077",
            "AESEQ",
            "2",
            "AETRTEM",
            "TREATMENT EMERGENT FLAG",
            "Y",
            "DERIVED",
            "CLINICAL STUDY SPONSOR"
          ],
          [
            598,
            "CDISCPILOT01",
            "AE",
            "01-710-1077",
            "AESEQ",
            "3",
            "AETRTEM",
            "TREATMENT EMERGENT FLAG",
            "Y",
            "DERIVED",
            "CLINICAL STUDY SPONSOR"
          ],
          [
            599,
            "CDISCPILOT01",
            "AE",
            "01-710-1077",
            "AESEQ",
            "4",
            "AETRTEM",
            "TREATMENT EMERGENT FLAG",
            "N",
            "DERIVED",
            "CLINICAL STUDY SPONSOR"
          ],
          [
            600,
            "CDISCPILOT01",
            "AE",
            "01-710-1077",
            "AESEQ",
            "5",
            "AETRTEM",
            "TREATMENT EMERGENT FLAG",
            "N",
            "DERIVED",
            "CLINICAL STUDY SPONSOR"
          ],
          [
            601,
            "CDISCPILOT01",
            "AE",
            "01-710-1083",
            "AESEQ",
            "1",
            "AETRTEM",
            "TREATMENT EMERGENT FLAG",
            "Y",
            "DERIVED",
            "CLINICAL STUDY SPONSOR"
          ],
          [
            602,
            "CDISCPILOT01",
            "AE",
            "01-710-1137",
            "AESEQ",
            "1",
            "AETRTEM",
            "TREATMENT EMERGENT FLAG",
            "Y",
            "DERIVED",
            "CLINICAL STUDY SPONSOR"
          ],
          [
            603,
            "CDISCPILOT01",
            "AE",
            "01-710-1137",
            "AESEQ",
            "2",
            "AETRTEM",
            "TREATMENT EMERGENT FLAG",
            "Y",
            "DERIVED",
            "CLINICAL STUDY SPONSOR"
          ],
          [
            604,
            "CDISCPILOT01",
            "AE",
            "01-710-1137",
            "AESEQ",
            "3",
            "AETRTEM",
            "TREATMENT EMERGENT FLAG",
            "Y",
            "DERIVED",
            "CLINICAL STUDY SPONSOR"
          ],
          [
            605,
            "CDISCPILOT01",
            "AE",
            "01-710-1137",
            "AESEQ",
            "4",
            "AETRTEM",
            "TREATMENT EMERGENT FLAG",
            "Y",
            "DERIVED",
            "CLINICAL STUDY SPONSOR"
          ],
          [
            606,
            "CDISCPILOT01",
            "AE",
            "01-710-1142",
            "AESEQ",
            "1",
            "AETRTEM",
            "TREATMENT EMERGENT FLAG",
            "Y",
            "DERIVED",
            "CLINICAL STUDY SPONSOR"
          ],
          [
            607,
            "CDISCPILOT01",
            "AE",
            "01-710-1142",
            "AESEQ",
            "2",
            "AETRTEM",
            "TREATMENT EMERGENT FLAG",
            "Y",
            "DERIVED",
            "CLINICAL STUDY SPONSOR"
          ],
          [
            608,
            "CDISCPILOT01",
            "AE",
            "01-710-1142",
            "AESEQ",
            "3",
            "AETRTEM",
            "TREATMENT EMERGENT FLAG",
            "Y",
            "DERIVED",
            "CLINICAL STUDY SPONSOR"
          ],
          [
            609,
            "CDISCPILOT01",
            "AE",
            "01-710-1142",
            "AESEQ",
            "4",
            "AETRTEM",
            "TREATMENT EMERGENT FLAG",
            "Y",
            "DERIVED",
            "CLINICAL STUDY SPONSOR"
          ],
          [
            610,
            "CDISCPILOT01",
            "AE",
            "01-710-1142",
            "AESEQ",
            "5",
            "AETRTEM",
            "TREATMENT EMERGENT FLAG",
            "Y",
            "DERIVED",
            "CLINICAL STUDY SPONSOR"
          ],
          [
            611,
            "CDISCPILOT01",
            "AE",
            "01-710-1154",
            "AESEQ",
            "1",
            "AETRTEM",
            "TREATMENT EMERGENT FLAG",
            "Y",
            "DERIVED",
            "CLINICAL STUDY SPONSOR"
          ],
          [
            612,
            "CDISCPILOT01",
            "AE",
            "01-710-1154",
            "AESEQ",
            "2",
            "AETRTEM",
            "TREATMENT EMERGENT FLAG",
            "Y",
            "DERIVED",
            "CLINICAL STUDY SPONSOR"
          ],
          [
            613,
            "CDISCPILOT01",
            "AE",
            "01-710-1166",
            "AESEQ",
            "1",
            "AETRTEM",
            "TREATMENT EMERGENT FLAG",
            "Y",
            "DERIVED",
            "CLINICAL STUDY SPONSOR"
          ],
          [
            614,
            "CDISCPILOT01",
            "AE",
            "01-710-1166",
            "AESEQ",
            "2",
            "AETRTEM",
            "TREATMENT EMERGENT FLAG",
            "Y",
            "DERIVED",
            "CLINICAL STUDY SPONSOR"
          ],
          [
            615,
            "CDISCPILOT01",
            "AE",
            "01-710-1166",
            "AESEQ",
            "3",
            "AETRTEM",
            "TREATMENT EMERGENT FLAG",
            "Y",
            "DERIVED",
            "CLINICAL STUDY SPONSOR"
          ],
          [
            616,
            "CDISCPILOT01",
            "AE",
            "01-710-1166",
            "AESEQ",
            "4",
            "AETRTEM",
            "TREATMENT EMERGENT FLAG",
            "Y",
            "DERIVED",
            "CLINICAL STUDY SPONSOR"
          ],
          [
            617,
            "CDISCPILOT01",
            "AE",
            "01-710-1166",
            "AESEQ",
            "5",
            "AETRTEM",
            "TREATMENT EMERGENT FLAG",
            "Y",
            "DERIVED",
            "CLINICAL STUDY SPONSOR"
          ],
          [
            618,
            "CDISCPILOT01",
            "AE",
            "01-710-1183",
            "AESEQ",
            "1",
            "AETRTEM",
            "TREATMENT EMERGENT FLAG",
            "Y",
            "DERIVED",
            "CLINICAL STUDY SPONSOR"
          ],
          [
            619,
            "CDISCPILOT01",
            "AE",
            "01-710-1183",
            "AESEQ",
            "2",
            "AETRTEM",
            "TREATMENT EMERGENT FLAG",
            "Y",
            "DERIVED",
            "CLINICAL STUDY SPONSOR"
          ],
          [
            620,
            "CDISCPILOT01",
            "AE",
            "01-710-1187",
            "AESEQ",
            "1",
            "AETRTEM",
            "TREATMENT EMERGENT FLAG",
            "Y",
            "DERIVED",
            "CLINICAL STUDY SPONSOR"
          ],
          [
            621,
            "CDISCPILOT01",
            "AE",
            "01-710-1235",
            "AESEQ",
            "1",
            "AETRTEM",
            "TREATMENT EMERGENT FLAG",
            "Y",
            "DERIVED",
            "CLINICAL STUDY SPONSOR"
          ],
          [
            622,
            "CDISCPILOT01",
            "AE",
            "01-710-1235",
            "AESEQ",
            "2",
            "AETRTEM",
            "TREATMENT EMERGENT FLAG",
            "Y",
            "DERIVED",
            "CLINICAL STUDY SPONSOR"
          ],
          [
            623,
            "CDISCPILOT01",
            "AE",
            "01-710-1235",
            "AESEQ",
            "3",
            "AETRTEM",
            "TREATMENT EMERGENT FLAG",
            "Y",
            "DERIVED",
            "CLINICAL STUDY SPONSOR"
          ],
          [
            624,
            "CDISCPILOT01",
            "AE",
            "01-710-1249",
            "AESEQ",
            "1",
            "AETRTEM",
            "TREATMENT EMERGENT FLAG",
            "Y",
            "DERIVED",
            "CLINICAL STUDY SPONSOR"
          ],
          [
            625,
            "CDISCPILOT01",
            "AE",
            "01-710-1249",
            "AESEQ",
            "2",
            "AETRTEM",
            "TREATMENT EMERGENT FLAG",
            "Y",
            "DERIVED",
            "CLINICAL STUDY SPONSOR"
          ],
          [
            626,
            "CDISCPILOT01",
            "AE",
            "01-710-1249",
            "AESEQ",
            "3",
            "AETRTEM",
            "TREATMENT EMERGENT FLAG",
            "Y",
            "DERIVED",
            "CLINICAL STUDY SPONSOR"
          ],
          [
            627,
            "CDISCPILOT01",
            "AE",
            "01-710-1249",
            "AESEQ",
            "4",
            "AETRTEM",
            "TREATMENT EMERGENT FLAG",
            "Y",
            "DERIVED",
            "CLINICAL STUDY SPONSOR"
          ],
          [
            628,
            "CDISCPILOT01",
            "AE",
            "01-710-1264",
            "AESEQ",
            "1",
            "AETRTEM",
            "TREATMENT EMERGENT FLAG",
            "Y",
            "DERIVED",
            "CLINICAL STUDY SPONSOR"
          ],
          [
            629,
            "CDISCPILOT01",
            "AE",
            "01-710-1264",
            "AESEQ",
            "2",
            "AETRTEM",
            "TREATMENT EMERGENT FLAG",
            "Y",
            "DERIVED",
            "CLINICAL STUDY SPONSOR"
          ],
          [
            630,
            "CDISCPILOT01",
            "AE",
            "01-710-1264",
            "AESEQ",
            "3",
            "AETRTEM",
            "TREATMENT EMERGENT FLAG",
            "Y",
            "DERIVED",
            "CLINICAL STUDY SPONSOR"
          ],
          [
            631,
            "CDISCPILOT01",
            "AE",
            "01-710-1264",
            "AESEQ",
            "4",
            "AETRTEM",
            "TREATMENT EMERGENT FLAG",
            "Y",
            "DERIVED",
            "CLINICAL STUDY SPONSOR"
          ],
          [
            632,
            "CDISCPILOT01",
            "AE",
            "01-710-1264",
            "AESEQ",
            "5",
            "AETRTEM",
            "TREATMENT EMERGENT FLAG",
            "Y",
            "DERIVED",
            "CLINICAL STUDY SPONSOR"
          ],
          [
            633,
            "CDISCPILOT01",
            "AE",
            "01-710-1264",
            "AESEQ",
            "6",
            "AETRTEM",
            "TREATMENT EMERGENT FLAG",
            "Y",
            "DERIVED",
            "CLINICAL STUDY SPONSOR"
          ],
          [
            634,
            "CDISCPILOT01",
            "AE",
            "01-710-1264",
            "AESEQ",
            "7",
            "AETRTEM",
            "TREATMENT EMERGENT FLAG",
            "Y",
            "DERIVED",
            "CLINICAL STUDY SPONSOR"
          ],
          [
            635,
            "CDISCPILOT01",
            "AE",
            "01-710-1264",
            "AESEQ",
            "8",
            "AETRTEM",
            "TREATMENT EMERGENT FLAG",
            "Y",
            "DERIVED",
            "CLINICAL STUDY SPONSOR"
          ],
          [
            636,
            "CDISCPILOT01",
            "AE",
            "01-710-1264",
            "AESEQ",
            "9",
            "AETRTEM",
            "TREATMENT EMERGENT FLAG",
            "Y",
            "DERIVED",
            "CLINICAL STUDY SPONSOR"
          ],
          [
            637,
            "CDISCPILOT01",
            "AE",
            "01-710-1270",
            "AESEQ",
            "1",
            "AETRTEM",
            "TREATMENT EMERGENT FLAG",
            "Y",
            "DERIVED",
            "CLINICAL STUDY SPONSOR"
          ],
          [
            638,
            "CDISCPILOT01",
            "AE",
            "01-710-1270",
            "AESEQ",
            "2",
            "AETRTEM",
            "TREATMENT EMERGENT FLAG",
            "Y",
            "DERIVED",
            "CLINICAL STUDY SPONSOR"
          ],
          [
            639,
            "CDISCPILOT01",
            "AE",
            "01-710-1271",
            "AESEQ",
            "1",
            "AETRTEM",
            "TREATMENT EMERGENT FLAG",
            "Y",
            "DERIVED",
            "CLINICAL STUDY SPONSOR"
          ],
          [
            640,
            "CDISCPILOT01",
            "AE",
            "01-710-1271",
            "AESEQ",
            "2",
            "AETRTEM",
            "TREATMENT EMERGENT FLAG",
            "Y",
            "DERIVED",
            "CLINICAL STUDY SPONSOR"
          ],
          [
            641,
            "CDISCPILOT01",
            "AE",
            "01-710-1271",
            "AESEQ",
            "3",
            "AETRTEM",
            "TREATMENT EMERGENT FLAG",
            "Y",
            "DERIVED",
            "CLINICAL STUDY SPONSOR"
          ],
          [
            642,
            "CDISCPILOT01",
            "AE",
            "01-710-1271",
            "AESEQ",
            "4",
            "AETRTEM",
            "TREATMENT EMERGENT FLAG",
            "Y",
            "DERIVED",
            "CLINICAL STUDY SPONSOR"
          ],
          [
            643,
            "CDISCPILOT01",
            "AE",
            "01-710-1271",
            "AESEQ",
            "5",
            "AETRTEM",
            "TREATMENT EMERGENT FLAG",
            "Y",
            "DERIVED",
            "CLINICAL STUDY SPONSOR"
          ],
          [
            644,
            "CDISCPILOT01",
            "AE",
            "01-710-1278",
            "AESEQ",
            "1",
            "AETRTEM",
            "TREATMENT EMERGENT FLAG",
            "Y",
            "DERIVED",
            "CLINICAL STUDY SPONSOR"
          ],
          [
            645,
            "CDISCPILOT01",
            "AE",
            "01-710-1278",
            "AESEQ",
            "4",
            "AETRTEM",
            "TREATMENT EMERGENT FLAG",
            "Y",
            "DERIVED",
            "CLINICAL STUDY SPONSOR"
          ],
          [
            646,
            "CDISCPILOT01",
            "AE",
            "01-710-1278",
            "AESEQ",
            "5",
            "AETRTEM",
            "TREATMENT EMERGENT FLAG",
            "Y",
            "DERIVED",
            "CLINICAL STUDY SPONSOR"
          ],
          [
            647,
            "CDISCPILOT01",
            "AE",
            "01-710-1278",
            "AESEQ",
            "6",
            "AETRTEM",
            "TREATMENT EMERGENT FLAG",
            "Y",
            "DERIVED",
            "CLINICAL STUDY SPONSOR"
          ],
          [
            648,
            "CDISCPILOT01",
            "AE",
            "01-710-1278",
            "AESEQ",
            "7",
            "AETRTEM",
            "TREATMENT EMERGENT FLAG",
            "Y",
            "DERIVED",
            "CLINICAL STUDY SPONSOR"
          ],
          [
            649,
            "CDISCPILOT01",
            "AE",
            "01-710-1300",
            "AESEQ",
            "1",
            "AETRTEM",
            "TREATMENT EMERGENT FLAG",
            "Y",
            "DERIVED",
            "CLINICAL STUDY SPONSOR"
          ],
          [
            650,
            "CDISCPILOT01",
            "AE",
            "01-710-1300",
            "AESEQ",
            "2",
            "AETRTEM",
            "TREATMENT EMERGENT FLAG",
            "Y",
            "DERIVED",
            "CLINICAL STUDY SPONSOR"
          ],
          [
            651,
            "CDISCPILOT01",
            "AE",
            "01-710-1300",
            "AESEQ",
            "3",
            "AETRTEM",
            "TREATMENT EMERGENT FLAG",
            "Y",
            "DERIVED",
            "CLINICAL STUDY SPONSOR"
          ],
          [
            652,
            "CDISCPILOT01",
            "AE",
            "01-710-1300",
            "AESEQ",
            "4",
            "AETRTEM",
            "TREATMENT EMERGENT FLAG",
            "Y",
            "DERIVED",
            "CLINICAL STUDY SPONSOR"
          ],
          [
            653,
            "CDISCPILOT01",
            "AE",
            "01-710-1314",
            "AESEQ",
            "2",
            "AETRTEM",
            "TREATMENT EMERGENT FLAG",
            "Y",
            "DERIVED",
            "CLINICAL STUDY SPONSOR"
          ],
          [
            654,
            "CDISCPILOT01",
            "AE",
            "01-710-1315",
            "AESEQ",
            "1",
            "AETRTEM",
            "TREATMENT EMERGENT FLAG",
            "N",
            "DERIVED",
            "CLINICAL STUDY SPONSOR"
          ],
          [
            655,
            "CDISCPILOT01",
            "AE",
            "01-710-1315",
            "AESEQ",
            "5",
            "AETRTEM",
            "TREATMENT EMERGENT FLAG",
            "Y",
            "DERIVED",
            "CLINICAL STUDY SPONSOR"
          ],
          [
            656,
            "CDISCPILOT01",
            "AE",
            "01-710-1315",
            "AESEQ",
            "6",
            "AETRTEM",
            "TREATMENT EMERGENT FLAG",
            "Y",
            "DERIVED",
            "CLINICAL STUDY SPONSOR"
          ],
          [
            657,
            "CDISCPILOT01",
            "AE",
            "01-710-1315",
            "AESEQ",
            "7",
            "AETRTEM",
            "TREATMENT EMERGENT FLAG",
            "Y",
            "DERIVED",
            "CLINICAL STUDY SPONSOR"
          ],
          [
            658,
            "CDISCPILOT01",
            "AE",
            "01-710-1354",
            "AESEQ",
            "1",
            "AETRTEM",
            "TREATMENT EMERGENT FLAG",
            "Y",
            "DERIVED",
            "CLINICAL STUDY SPONSOR"
          ],
          [
            659,
            "CDISCPILOT01",
            "AE",
            "01-710-1354",
            "AESEQ",
            "2",
            "AETRTEM",
            "TREATMENT EMERGENT FLAG",
            "Y",
            "DERIVED",
            "CLINICAL STUDY SPONSOR"
          ],
          [
            660,
            "CDISCPILOT01",
            "AE",
            "01-710-1358",
            "AESEQ",
            "1",
            "AETRTEM",
            "TREATMENT EMERGENT FLAG",
            "Y",
            "DERIVED",
            "CLINICAL STUDY SPONSOR"
          ],
          [
            661,
            "CDISCPILOT01",
            "AE",
            "01-710-1358",
            "AESEQ",
            "2",
            "AETRTEM",
            "TREATMENT EMERGENT FLAG",
            "Y",
            "DERIVED",
            "CLINICAL STUDY SPONSOR"
          ],
          [
            662,
            "CDISCPILOT01",
            "AE",
            "01-710-1358",
            "AESEQ",
            "3",
            "AETRTEM",
            "TREATMENT EMERGENT FLAG",
            "Y",
            "DERIVED",
            "CLINICAL STUDY SPONSOR"
          ],
          [
            663,
            "CDISCPILOT01",
            "AE",
            "01-710-1368",
            "AESEQ",
            "2",
            "AETRTEM",
            "TREATMENT EMERGENT FLAG",
            "Y",
            "DERIVED",
            "CLINICAL STUDY SPONSOR"
          ],
          [
            664,
            "CDISCPILOT01",
            "AE",
            "01-710-1368",
            "AESEQ",
            "3",
            "AETRTEM",
            "TREATMENT EMERGENT FLAG",
            "Y",
            "DERIVED",
            "CLINICAL STUDY SPONSOR"
          ],
          [
            665,
            "CDISCPILOT01",
            "AE",
            "01-710-1368",
            "AESEQ",
            "4",
            "AETRTEM",
            "TREATMENT EMERGENT FLAG",
            "Y",
            "DERIVED",
            "CLINICAL STUDY SPONSOR"
          ],
          [
            666,
            "CDISCPILOT01",
            "AE",
            "01-710-1385",
            "AESEQ",
            "2",
            "AETRTEM",
            "TREATMENT EMERGENT FLAG",
            "Y",
            "DERIVED",
            "CLINICAL STUDY SPONSOR"
          ],
          [
            667,
            "CDISCPILOT01",
            "AE",
            "01-710-1385",
            "AESEQ",
            "3",
            "AETRTEM",
            "TREATMENT EMERGENT FLAG",
            "Y",
            "DERIVED",
            "CLINICAL STUDY SPONSOR"
          ],
          [
            668,
            "CDISCPILOT01",
            "AE",
            "01-710-1385",
            "AESEQ",
            "4",
            "AETRTEM",
            "TREATMENT EMERGENT FLAG",
            "Y",
            "DERIVED",
            "CLINICAL STUDY SPONSOR"
          ],
          [
            669,
            "CDISCPILOT01",
            "AE",
            "01-710-1385",
            "AESEQ",
            "5",
            "AETRTEM",
            "TREATMENT EMERGENT FLAG",
            "Y",
            "DERIVED",
            "CLINICAL STUDY SPONSOR"
          ],
          [
            670,
            "CDISCPILOT01",
            "AE",
            "01-710-1385",
            "AESEQ",
            "6",
            "AETRTEM",
            "TREATMENT EMERGENT FLAG",
            "Y",
            "DERIVED",
            "CLINICAL STUDY SPONSOR"
          ],
          [
            671,
            "CDISCPILOT01",
            "AE",
            "01-710-1385",
            "AESEQ",
            "7",
            "AETRTEM",
            "TREATMENT EMERGENT FLAG",
            "Y",
            "DERIVED",
            "CLINICAL STUDY SPONSOR"
          ],
          [
            672,
            "CDISCPILOT01",
            "AE",
            "01-710-1385",
            "AESEQ",
            "8",
            "AETRTEM",
            "TREATMENT EMERGENT FLAG",
            "Y",
            "DERIVED",
            "CLINICAL STUDY SPONSOR"
          ],
          [
            673,
            "CDISCPILOT01",
            "AE",
            "01-710-1408",
            "AESEQ",
            "2",
            "AETRTEM",
            "TREATMENT EMERGENT FLAG",
            "Y",
            "DERIVED",
            "CLINICAL STUDY SPONSOR"
          ],
          [
            674,
            "CDISCPILOT01",
            "AE",
            "01-710-1408",
            "AESEQ",
            "4",
            "AETRTEM",
            "TREATMENT EMERGENT FLAG",
            "Y",
            "DERIVED",
            "CLINICAL STUDY SPONSOR"
          ],
          [
            675,
            "CDISCPILOT01",
            "AE",
            "01-711-1012",
            "AESEQ",
            "1",
            "AETRTEM",
            "TREATMENT EMERGENT FLAG",
            "Y",
            "DERIVED",
            "CLINICAL STUDY SPONSOR"
          ],
          [
            676,
            "CDISCPILOT01",
            "AE",
            "01-711-1012",
            "AESEQ",
            "2",
            "AETRTEM",
            "TREATMENT EMERGENT FLAG",
            "Y",
            "DERIVED",
            "CLINICAL STUDY SPONSOR"
          ],
          [
            677,
            "CDISCPILOT01",
            "AE",
            "01-711-1012",
            "AESEQ",
            "3",
            "AETRTEM",
            "TREATMENT EMERGENT FLAG",
