{
  "clinicalData": {
    "studyOID": "UpdatedCDISCPILOT.CDISC SDTM.3.2",
    "metaDataVersionOID": "MDV.UpdatedCDISCPILOT.CDISC SDTM.3.2",
    "itemGroupData": {
      "IG.SV": {
        "records": 3559,
        "name": "SV",
        "label": "Subject Visits",
        "items": [
          {
            "OID": "ITEMGROUPDATASEQ",
            "name": "ITEMGROUPDATASEQ",
            "label": "Record identifier",
            "type": "integer"
          },
          {
            "OID": "IT.SV.STUDYID",
            "name": "STUDYID",
            "label": "Study Identifier",
            "type": "string",
            "length": 12
          },
          {
            "OID": "IT.SV.DOMAIN",
            "name": "DOMAIN",
            "label": "Domain Abbreviation",
            "type": "string",
            "length": 2
          },
          {
            "OID": "IT.SV.USUBJID",
            "name": "USUBJID",
            "label": "Unique Subject Identifier",
            "type": "string",
            "length": 11
          },
          {
            "OID": "IT.SV.VISITNUM",
            "name": "VISITNUM",
            "label": "Visit Number",
            "type": "float",
            "length": 8
          },
          {
            "OID": "IT.SV.VISIT",
            "name": "VISIT",
            "label": "Visit Name",
            "type": "string",
            "length": 19
          },
          {
            "OID": "IT.SV.VISITDY",
            "name": "VISITDY",
            "label": "Planned Study Day of Visit",
            "type": "integer",
            "length": 8
          },
          {
            "OID": "IT.SV.EPOCH",
            "name": "EPOCH",
            "label": "Epoch",
            "type": "string",
            "length": 9
          },
          {
            "OID": "IT.SV.SVSTDTC",
            "name": "SVSTDTC",
            "label": "Start Date/Time of Visit",
            "type": "string",
            "length": 10
          },
          {
            "OID": "IT.SV.SVENDTC",
            "name": "SVENDTC",
            "label": "End Date/Time of Visit",
            "type": "string",
            "length": 10
          },
          {
            "OID": "IT.SV.SVSTDY",
            "name": "SVSTDY",
            "label": "Study Day of Start of Visit",
            "type": "integer",
            "length": 8
          },
          {
            "OID": "IT.SV.SVENDY",
            "name": "SVENDY",
            "label": "Study Day of End of Visit",
            "type": "integer",
            "length": 8
          },
          {
            "OID": "IT.SV.SVUPDES",
            "name": "SVUPDES",
            "label": "Description of Unplanned Visit",
            "type": "string",
            "length": 51
          }
        ],
        "itemData": [
          [
            1,
            "CDISCPILOT01",
            "SV",
            "01-701-1015",
            1,
            "SCREENING 1",
            -7,
            "SCREENING",
            "2013-12-26",
            "2013-12-26",
            -7,
            -7,
            ""
          ],
          [
            2,
            "CDISCPILOT01",
            "SV",
            "01-701-1015",
            2,
            "SCREENING 2",
            -1,
            "SCREENING",
            "2013-12-31",
            "2013-12-31",
            -2,
            -2,
            ""
          ],
          [
            3,
            "CDISCPILOT01",
            "SV",
            "01-701-1015",
            3,
            "BASELINE",
            1,
            "TREATMENT",
            "2014-01-02",
            "2014-01-02",
            1,
            1,
            ""
          ],
          [
            4,
            "CDISCPILOT01",
            "SV",
            "01-701-1015",
            3.5,
            "AMBUL ECG PLACEMENT",
            13,
            "TREATMENT",
            "2014-01-14",
            "2014-01-14",
            13,
            13,
            ""
          ],
          [
            5,
            "CDISCPILOT01",
            "SV",
            "01-701-1015",
            4,
            "WEEK 2",
            14,
            "TREATMENT",
            "2014-01-16",
            "2014-01-16",
            15,
            15,
            ""
          ],
          [
            6,
            "CDISCPILOT01",
            "SV",
            "01-701-1015",
            5,
            "WEEK 4",
            28,
            "TREATMENT",
            "2014-01-30",
            "2014-01-30",
            29,
            29,
            ""
          ],
          [
            7,
            "CDISCPILOT01",
            "SV",
            "01-701-1015",
            6,
            "AMBUL ECG REMOVAL",
            30,
            "TREATMENT",
            "2014-02-01",
            "2014-02-01",
            31,
            31,
            ""
          ],
          [
            8,
            "CDISCPILOT01",
            "SV",
            "01-701-1015",
            7,
            "WEEK 6",
            42,
            "TREATMENT",
            "2014-02-12",
            "2014-02-12",
            42,
            42,
            ""
          ],
          [
            9,
            "CDISCPILOT01",
            "SV",
            "01-701-1015",
            8,
            "WEEK 8",
            56,
            "TREATMENT",
            "2014-03-05",
            "2014-03-05",
            63,
            63,
            ""
          ],
          [
            10,
            "CDISCPILOT01",
            "SV",
            "01-701-1015",
            9,
            "WEEK 12",
            84,
            "TREATMENT",
            "2014-03-26",
            "2014-03-26",
            84,
            84,
            ""
          ],
          [
            11,
            "CDISCPILOT01",
            "SV",
            "01-701-1015",
            9.1,
            "WEEK 14 (T)",
            98,
            "TREATMENT",
            "2014-04-09",
            "2014-04-09",
            98,
            98,
            ""
          ],
          [
            12,
            "CDISCPILOT01",
            "SV",
            "01-701-1015",
            10,
            "WEEK 16",
            112,
            "TREATMENT",
            "2014-05-07",
            "2014-05-07",
            126,
            126,
            ""
          ],
          [
            13,
            "CDISCPILOT01",
            "SV",
            "01-701-1015",
            11,
            "WEEK 20",
            140,
            "TREATMENT",
            "2014-05-21",
            "2014-05-21",
            140,
            140,
            ""
          ],
          [
            14,
            "CDISCPILOT01",
            "SV",
            "01-701-1015",
            11.1,
            "WEEK 22 (T)",
            154,
            "TREATMENT",
            "2014-06-04",
            "2014-06-04",
            154,
            154,
            ""
          ],
          [
            15,
            "CDISCPILOT01",
            "SV",
            "01-701-1015",
            12,
            "WEEK 24",
            168,
            "TREATMENT",
            "2014-06-18",
            "2014-06-18",
            168,
            168,
            ""
          ],
          [
            16,
            "CDISCPILOT01",
            "SV",
            "01-701-1015",
            13,
            "WEEK 26",
            182,
            "TREATMENT",
            "2014-07-02",
            "2014-07-02",
            182,
            182,
            ""
          ],
          [
            17,
            "CDISCPILOT01",
            "SV",
            "01-701-1023",
            1,
            "SCREENING 1",
            -7,
            "SCREENING",
            "2012-07-22",
            "2012-07-22",
            -14,
            -14,
            ""
          ],
          [
            18,
            "CDISCPILOT01",
            "SV",
            "01-701-1023",
            2,
            "SCREENING 2",
            -1,
            "SCREENING",
            "2012-08-03",
            "2012-08-03",
            -2,
            -2,
            ""
          ],
          [
            19,
            "CDISCPILOT01",
            "SV",
            "01-701-1023",
            3,
            "BASELINE",
            1,
            "TREATMENT",
            "2012-08-05",
            "2012-08-05",
            1,
            1,
            ""
          ],
          [
            20,
            "CDISCPILOT01",
            "SV",
            "01-701-1023",
            3.5,
            "AMBUL ECG PLACEMENT",
            13,
            "TREATMENT",
            "2012-08-26",
            "2012-08-26",
            22,
            22,
            ""
          ],
          [
            21,
            "CDISCPILOT01",
            "SV",
            "01-701-1023",
            4,
            "WEEK 2",
            14,
            "TREATMENT",
            "2012-08-27",
            "2012-08-27",
            23,
            23,
            ""
          ],
          [
            22,
            "CDISCPILOT01",
            "SV",
            "01-701-1023",
            5,
            "WEEK 4",
            28,
            "TREATMENT",
            "2012-09-02",
            "2012-09-02",
            29,
            29,
            ""
          ],
          [
            23,
            "CDISCPILOT01",
            "SV",
            "01-701-1023",
            5.1,
            "UNSCHEDULED 5.1",
            null,
            "TREATMENT",
            "2013-02-18",
            "2013-02-18",
            198,
            198,
            "Unplanned visit to complete unscheduled assessments"
          ],
          [
            24,
            "CDISCPILOT01",
            "SV",
            "01-701-1023",
            101,
            "AE FOLLOW-UP",
            null,
            "TREATMENT",
            "2013-02-18",
            "2013-02-18",
            198,
            198,
            ""
          ],
          [
            25,
            "CDISCPILOT01",
            "SV",
            "01-701-1023",
            201,
            "RETRIEVAL",
            168,
            "TREATMENT",
            "2013-02-18",
            "2013-02-18",
            198,
            198,
            ""
          ],
          [
            26,
            "CDISCPILOT01",
            "SV",
            "01-701-1028",
            1,
            "SCREENING 1",
            -7,
            "SCREENING",
            "2013-07-11",
            "2013-07-11",
            -8,
            -8,
            ""
          ],
          [
            27,
            "CDISCPILOT01",
            "SV",
            "01-701-1028",
            2,
            "SCREENING 2",
            -1,
            "SCREENING",
            "2013-07-17",
            "2013-07-17",
            -2,
            -2,
            ""
          ],
          [
            28,
            "CDISCPILOT01",
            "SV",
            "01-701-1028",
            3,
            "BASELINE",
            1,
            "TREATMENT",
            "2013-07-19",
            "2013-07-19",
            1,
            1,
            ""
          ],
          [
            29,
            "CDISCPILOT01",
            "SV",
            "01-701-1028",
            3.5,
            "AMBUL ECG PLACEMENT",
            13,
            "TREATMENT",
            "2013-07-31",
            "2013-07-31",
            13,
            13,
            ""
          ],
          [
            30,
            "CDISCPILOT01",
            "SV",
            "01-701-1028",
            4,
            "WEEK 2",
            14,
            "TREATMENT",
            "2013-08-01",
            "2013-08-01",
            14,
            14,
            ""
          ],
          [
            31,
            "CDISCPILOT01",
            "SV",
            "01-701-1028",
            5,
            "WEEK 4",
            28,
            "TREATMENT",
            "2013-08-14",
            "2013-08-14",
            27,
            27,
            ""
          ],
          [
            32,
            "CDISCPILOT01",
            "SV",
            "01-701-1028",
            6,
            "AMBUL ECG REMOVAL",
            30,
            "TREATMENT",
            "2013-08-16",
            "2013-08-16",
            29,
            29,
            ""
          ],
          [
            33,
            "CDISCPILOT01",
            "SV",
            "01-701-1028",
            7,
            "WEEK 6",
            42,
            "TREATMENT",
            "2013-08-29",
            "2013-08-29",
            42,
            42,
            ""
          ],
          [
            34,
            "CDISCPILOT01",
            "SV",
            "01-701-1028",
            8,
            "WEEK 8",
            56,
            "TREATMENT",
            "2013-09-10",
            "2013-09-10",
            54,
            54,
            ""
          ],
          [
            35,
            "CDISCPILOT01",
            "SV",
            "01-701-1028",
            8.1,
            "WEEK 10 (T)",
            70,
            "TREATMENT",
            "2013-09-24",
            "2013-09-24",
            68,
            68,
            ""
          ],
          [
            36,
            "CDISCPILOT01",
            "SV",
            "01-701-1028",
            9,
            "WEEK 12",
            84,
            "TREATMENT",
            "2013-10-09",
            "2013-10-09",
            83,
            83,
            ""
          ],
          [
            37,
            "CDISCPILOT01",
            "SV",
            "01-701-1028",
            9.1,
            "WEEK 14 (T)",
            98,
            "TREATMENT",
            "2013-10-23",
            "2013-10-23",
            97,
            97,
            ""
          ],
          [
            38,
            "CDISCPILOT01",
            "SV",
            "01-701-1028",
            10,
            "WEEK 16",
            112,
            "TREATMENT",
            "2013-11-06",
            "2013-11-06",
            111,
            111,
            ""
          ],
          [
            39,
            "CDISCPILOT01",
            "SV",
            "01-701-1028",
            10.1,
            "WEEK 18 (T)",
            126,
            "TREATMENT",
            "2013-11-20",
            "2013-11-20",
            125,
            125,
            ""
          ],
          [
            40,
            "CDISCPILOT01",
            "SV",
            "01-701-1028",
            11,
            "WEEK 20",
            140,
            "TREATMENT",
            "2013-12-04",
            "2013-12-04",
            139,
            139,
            ""
          ],
          [
            41,
            "CDISCPILOT01",
            "SV",
            "01-701-1028",
            11.1,
            "WEEK 22 (T)",
            154,
            "TREATMENT",
            "2013-12-18",
            "2013-12-18",
            153,
            153,
            ""
          ],
          [
            42,
            "CDISCPILOT01",
            "SV",
            "01-701-1028",
            12,
            "WEEK 24",
            168,
            "TREATMENT",
            "2014-01-06",
            "2014-01-06",
            172,
            172,
            ""
          ],
          [
            43,
            "CDISCPILOT01",
            "SV",
            "01-701-1028",
            13,
            "WEEK 26",
            182,
            "TREATMENT",
            "2014-01-14",
            "2014-01-14",
            180,
            180,
            ""
          ],
          [
            44,
            "CDISCPILOT01",
            "SV",
            "01-701-1033",
            1,
            "SCREENING 1",
            -7,
            "SCREENING",
            "2014-03-10",
            "2014-03-10",
            -8,
            -8,
            ""
          ],
          [
            45,
            "CDISCPILOT01",
            "SV",
            "01-701-1033",
            2,
            "SCREENING 2",
            -1,
            "SCREENING",
            "2014-03-16",
            "2014-03-16",
            -2,
            -2,
            ""
          ],
          [
            46,
            "CDISCPILOT01",
            "SV",
            "01-701-1033",
            3,
            "BASELINE",
            1,
            "TREATMENT",
            "2014-03-18",
            "2014-03-18",
            1,
            1,
            ""
          ],
          [
            47,
            "CDISCPILOT01",
            "SV",
            "01-701-1033",
            3.5,
            "AMBUL ECG PLACEMENT",
            13,
            "TREATMENT",
            "2014-03-31",
            "2014-03-31",
            14,
            14,
            ""
          ],
          [
            48,
            "CDISCPILOT01",
            "SV",
            "01-701-1033",
            4,
            "WEEK 2",
            14,
            "TREATMENT",
            "2014-04-01",
            "2014-04-01",
            15,
            15,
            ""
          ],
          [
            49,
            "CDISCPILOT01",
            "SV",
            "01-701-1033",
            5,
            "WEEK 4",
            28,
            "TREATMENT",
            "2014-04-14",
            "2014-04-14",
            28,
            28,
            ""
          ],
          [
            50,
            "CDISCPILOT01",
            "SV",
            "01-701-1033",
            201,
            "RETRIEVAL",
            168,
            "FOLLOW-UP",
            "2014-09-15",
            "2014-09-15",
            182,
            182,
            ""
          ],
          [
            51,
            "CDISCPILOT01",
            "SV",
            "01-701-1034",
            1,
            "SCREENING 1",
            -7,
            "SCREENING",
            "2014-06-24",
            "2014-06-24",
            -7,
            -7,
            ""
          ],
          [
            52,
            "CDISCPILOT01",
            "SV",
            "01-701-1034",
            2,
            "SCREENING 2",
            -1,
            "SCREENING",
            "2014-06-29",
            "2014-06-29",
            -2,
            -2,
            ""
          ],
          [
            53,
            "CDISCPILOT01",
            "SV",
            "01-701-1034",
            3,
            "BASELINE",
            1,
            "TREATMENT",
            "2014-07-01",
            "2014-07-01",
            1,
            1,
            ""
          ],
          [
            54,
            "CDISCPILOT01",
            "SV",
            "01-701-1034",
            4,
            "WEEK 2",
            14,
            "TREATMENT",
            "2014-07-15",
            "2014-07-15",
            15,
            15,
            ""
          ],
          [
            55,
            "CDISCPILOT01",
            "SV",
            "01-701-1034",
            5,
            "WEEK 4",
            28,
            "TREATMENT",
            "2014-07-29",
            "2014-07-29",
            29,
            29,
            ""
          ],
          [
            56,
            "CDISCPILOT01",
            "SV",
            "01-701-1034",
            6,
            "AMBUL ECG REMOVAL",
            30,
            "TREATMENT",
            "2014-07-31",
            "2014-07-31",
            31,
            31,
            ""
          ],
          [
            57,
            "CDISCPILOT01",
            "SV",
            "01-701-1034",
            7,
            "WEEK 6",
            42,
            "TREATMENT",
            "2014-08-11",
            "2014-08-11",
            42,
            42,
            ""
          ],
          [
            58,
            "CDISCPILOT01",
            "SV",
            "01-701-1034",
            8,
            "WEEK 8",
            56,
            "TREATMENT",
            "2014-08-26",
            "2014-08-26",
            57,
            57,
            ""
          ],
          [
            59,
            "CDISCPILOT01",
            "SV",
            "01-701-1034",
            8.1,
            "WEEK 10 (T)",
            70,
            "TREATMENT",
            "2014-09-09",
            "2014-09-09",
            71,
            71,
            ""
          ],
          [
            60,
            "CDISCPILOT01",
            "SV",
            "01-701-1034",
            9,
            "WEEK 12",
            84,
            "TREATMENT",
            "2014-09-25",
            "2014-09-25",
            87,
            87,
            ""
          ],
          [
            61,
            "CDISCPILOT01",
            "SV",
            "01-701-1034",
            9.1,
            "WEEK 14 (T)",
            98,
            "TREATMENT",
            "2014-10-07",
            "2014-10-07",
            99,
            99,
            ""
          ],
          [
            62,
            "CDISCPILOT01",
            "SV",
            "01-701-1034",
            10,
            "WEEK 16",
            112,
            "TREATMENT",
            "2014-10-21",
            "2014-10-21",
            113,
            113,
            ""
          ],
          [
            63,
            "CDISCPILOT01",
            "SV",
            "01-701-1034",
            10.1,
            "WEEK 18 (T)",
            126,
            "TREATMENT",
            "2014-11-04",
            "2014-11-04",
            127,
            127,
            ""
          ],
          [
            64,
            "CDISCPILOT01",
            "SV",
            "01-701-1034",
            11,
            "WEEK 20",
            140,
            "TREATMENT",
            "2014-11-18",
            "2014-11-18",
            141,
            141,
            ""
          ],
          [
            65,
            "CDISCPILOT01",
            "SV",
            "01-701-1034",
            11.1,
            "WEEK 22 (T)",
            154,
            "TREATMENT",
            "2014-12-02",
            "2014-12-02",
            155,
            155,
            ""
          ],
          [
            66,
            "CDISCPILOT01",
            "SV",
            "01-701-1034",
            12,
            "WEEK 24",
            168,
            "TREATMENT",
            "2014-12-17",
            "2014-12-17",
            170,
            170,
            ""
          ],
          [
            67,
            "CDISCPILOT01",
            "SV",
            "01-701-1034",
            13,
            "WEEK 26",
            182,
            "TREATMENT",
            "2014-12-30",
            "2014-12-30",
            183,
            183,
            ""
          ],
          [
            68,
            "CDISCPILOT01",
            "SV",
            "01-701-1047",
            1,
            "SCREENING 1",
            -7,
            "SCREENING",
            "2013-01-22",
            "2013-01-22",
            -21,
            -21,
            ""
          ],
          [
            69,
            "CDISCPILOT01",
            "SV",
            "01-701-1047",
            2,
            "SCREENING 2",
            -1,
            "SCREENING",
            "2013-02-10",
            "2013-02-10",
            -2,
            -2,
            ""
          ],
          [
            70,
            "CDISCPILOT01",
            "SV",
            "01-701-1047",
            3,
            "BASELINE",
            1,
            "TREATMENT",
            "2013-02-12",
            "2013-02-12",
            1,
            1,
            ""
          ],
          [
            71,
            "CDISCPILOT01",
            "SV",
            "01-701-1047",
            3.5,
            "AMBUL ECG PLACEMENT",
            13,
            "TREATMENT",
            "2013-02-24",
            "2013-02-24",
            13,
            13,
            ""
          ],
          [
            72,
            "CDISCPILOT01",
            "SV",
            "01-701-1047",
            4,
            "WEEK 2",
            14,
            "TREATMENT",
            "2013-02-25",
            "2013-02-25",
            14,
            14,
            ""
          ],
          [
            73,
            "CDISCPILOT01",
            "SV",
            "01-701-1047",
            5,
            "WEEK 4",
            28,
            "TREATMENT",
            "2013-03-10",
            "2013-03-10",
            27,
            27,
            ""
          ],
          [
            74,
            "CDISCPILOT01",
            "SV",
            "01-701-1047",
            6,
            "AMBUL ECG REMOVAL",
            30,
            "TREATMENT",
            "2013-03-29",
            "2013-03-29",
            46,
            46,
            ""
          ],
          [
            75,
            "CDISCPILOT01",
            "SV",
            "01-701-1047",
            6.1,
            "UNSCHEDULED 6.1",
            null,
            "TREATMENT",
            "2013-04-07",
            "2013-04-07",
            55,
            55,
            "Unplanned visit to complete unscheduled assessments"
          ],
          [
            76,
            "CDISCPILOT01",
            "SV",
            "01-701-1047",
            201,
            "RETRIEVAL",
            168,
            "FOLLOW-UP",
            "2013-07-28",
            "2013-07-28",
            167,
            167,
            ""
          ],
          [
            77,
            "CDISCPILOT01",
            "SV",
            "01-701-1057",
            1,
            "SCREENING 1",
            -7,
            "SCREENING",
            "2013-12-20",
            "2013-12-20",
            null,
            null,
            ""
          ],
          [
            78,
            "CDISCPILOT01",
            "SV",
            "01-701-1097",
            1,
            "SCREENING 1",
            -7,
            "SCREENING",
            "2013-12-23",
            "2013-12-23",
            -9,
            -9,
            ""
          ],
          [
            79,
            "CDISCPILOT01",
            "SV",
            "01-701-1097",
            2,
            "SCREENING 2",
            -1,
            "SCREENING",
            "2013-12-30",
            "2013-12-30",
            -2,
            -2,
            ""
          ],
          [
            80,
            "CDISCPILOT01",
            "SV",
            "01-701-1097",
            3,
            "BASELINE",
            1,
            "TREATMENT",
            "2014-01-01",
            "2014-01-01",
            1,
            1,
            ""
          ],
          [
            81,
            "CDISCPILOT01",
            "SV",
            "01-701-1097",
            3.5,
            "AMBUL ECG PLACEMENT",
            13,
            "TREATMENT",
            "2014-01-14",
            "2014-01-14",
            14,
            14,
            ""
          ],
          [
            82,
            "CDISCPILOT01",
            "SV",
            "01-701-1097",
            4,
            "WEEK 2",
            14,
            "TREATMENT",
            "2014-01-15",
            "2014-01-15",
            15,
            15,
            ""
          ],
          [
            83,
            "CDISCPILOT01",
            "SV",
            "01-701-1097",
            5,
            "WEEK 4",
            28,
            "TREATMENT",
            "2014-01-29",
            "2014-01-29",
            29,
            29,
            ""
          ],
          [
            84,
            "CDISCPILOT01",
            "SV",
            "01-701-1097",
            6,
            "AMBUL ECG REMOVAL",
            30,
            "TREATMENT",
            "2014-02-04",
            "2014-02-04",
            35,
            35,
            ""
          ],
          [
            85,
            "CDISCPILOT01",
            "SV",
            "01-701-1097",
            7,
            "WEEK 6",
            42,
            "TREATMENT",
            "2014-02-11",
            "2014-02-11",
            42,
            42,
            ""
          ],
          [
            86,
            "CDISCPILOT01",
            "SV",
            "01-701-1097",
            8,
            "WEEK 8",
            56,
            "TREATMENT",
            "2014-02-26",
            "2014-02-26",
            57,
            57,
            ""
          ],
          [
            87,
            "CDISCPILOT01",
            "SV",
            "01-701-1097",
            9,
            "WEEK 12",
            84,
            "TREATMENT",
            "2014-03-26",
            "2014-03-26",
            85,
            85,
            ""
          ],
          [
            88,
            "CDISCPILOT01",
            "SV",
            "01-701-1097",
            9.1,
            "WEEK 14 (T)",
            98,
            "TREATMENT",
            "2014-04-09",
            "2014-04-09",
            99,
            99,
            ""
          ],
          [
            89,
            "CDISCPILOT01",
            "SV",
            "01-701-1097",
            10,
            "WEEK 16",
            112,
            "TREATMENT",
            "2014-04-23",
            "2014-04-23",
            113,
            113,
            ""
          ],
          [
            90,
            "CDISCPILOT01",
            "SV",
            "01-701-1097",
            10.1,
            "WEEK 18 (T)",
            126,
            "TREATMENT",
            "2014-05-07",
            "2014-05-07",
            127,
            127,
            ""
          ],
          [
            91,
            "CDISCPILOT01",
            "SV",
            "01-701-1097",
            11,
            "WEEK 20",
            140,
            "TREATMENT",
            "2014-05-21",
            "2014-05-21",
            141,
            141,
            ""
          ],
          [
            92,
            "CDISCPILOT01",
            "SV",
            "01-701-1097",
            11.1,
            "WEEK 22 (T)",
            154,
            "TREATMENT",
            "2014-06-04",
            "2014-06-04",
            155,
            155,
            ""
          ],
          [
            93,
            "CDISCPILOT01",
            "SV",
            "01-701-1097",
            12,
            "WEEK 24",
            168,
            "TREATMENT",
            "2014-06-18",
            "2014-06-18",
            169,
            169,
            ""
          ],
          [
            94,
            "CDISCPILOT01",
            "SV",
            "01-701-1097",
            13,
            "WEEK 26",
            182,
            "TREATMENT",
            "2014-07-09",
            "2014-07-09",
            190,
            190,
            ""
          ],
          [
            95,
            "CDISCPILOT01",
            "SV",
            "01-701-1111",
            1,
            "SCREENING 1",
            -7,
            "SCREENING",
            "2012-08-25",
            "2012-08-25",
            -13,
            -13,
            ""
          ],
          [
            96,
            "CDISCPILOT01",
            "SV",
            "01-701-1111",
            2,
            "SCREENING 2",
            -1,
            "SCREENING",
            "2012-09-05",
            "2012-09-05",
            -2,
            -2,
            ""
          ],
          [
            97,
            "CDISCPILOT01",
            "SV",
            "01-701-1111",
            3,
            "BASELINE",
            1,
            "TREATMENT",
            "2012-09-07",
            "2012-09-07",
            1,
            1,
            ""
          ],
          [
            98,
            "CDISCPILOT01",
            "SV",
            "01-701-1111",
            4,
            "WEEK 2",
            14,
            "TREATMENT",
            "2012-09-17",
            "2012-09-17",
            11,
            11,
            ""
          ],
          [
            99,
            "CDISCPILOT01",
            "SV",
            "01-701-1111",
            101,
            "AE FOLLOW-UP",
            null,
            "FOLLOW-UP",
            "2012-09-29",
            "2012-09-29",
            23,
            23,
            ""
          ],
          [
            100,
            "CDISCPILOT01",
            "SV",
            "01-701-1111",
            201,
            "RETRIEVAL",
            168,
            "FOLLOW-UP",
            "2013-02-22",
            "2013-02-22",
            169,
            169,
            ""
          ],
          [
            101,
            "CDISCPILOT01",
            "SV",
            "01-701-1115",
            1,
            "SCREENING 1",
            -7,
            "SCREENING",
            "2012-11-23",
            "2012-11-23",
            -7,
            -7,
            ""
          ],
          [
            102,
            "CDISCPILOT01",
            "SV",
            "01-701-1115",
            2,
            "SCREENING 2",
            -1,
            "SCREENING",
            "2012-11-28",
            "2012-11-28",
            -2,
            -2,
            ""
          ],
          [
            103,
            "CDISCPILOT01",
            "SV",
            "01-701-1115",
            3,
            "BASELINE",
            1,
            "TREATMENT",
            "2012-11-30",
            "2012-11-30",
            1,
            1,
            ""
          ],
          [
            104,
            "CDISCPILOT01",
            "SV",
            "01-701-1115",
            3.5,
            "AMBUL ECG PLACEMENT",
            13,
            "TREATMENT",
            "2012-12-12",
            "2012-12-12",
            13,
            13,
            ""
          ],
          [
            105,
            "CDISCPILOT01",
            "SV",
            "01-701-1115",
            4,
            "WEEK 2",
            14,
            "TREATMENT",
            "2012-12-13",
            "2012-12-13",
            14,
            14,
            ""
          ],
          [
            106,
            "CDISCPILOT01",
            "SV",
            "01-701-1115",
            5,
            "WEEK 4",
            28,
            "TREATMENT",
            "2012-12-26",
            "2012-12-26",
            27,
            27,
            ""
          ],
          [
            107,
            "CDISCPILOT01",
            "SV",
            "01-701-1115",
            5.1,
            "UNSCHEDULED 5.1",
            null,
            "TREATMENT",
            "2012-12-28",
            "2012-12-28",
            29,
            29,
            "Unplanned visit to complete unscheduled assessments"
          ],
          [
            108,
            "CDISCPILOT01",
            "SV",
            "01-701-1115",
            6,
            "AMBUL ECG REMOVAL",
            30,
            "TREATMENT",
            "2012-12-28",
            "2012-12-28",
            29,
            29,
            ""
          ],
          [
            109,
            "CDISCPILOT01",
            "SV",
            "01-701-1115",
            7,
            "WEEK 6",
            42,
            "TREATMENT",
            "2013-01-10",
            "2013-01-10",
            42,
            42,
            ""
          ],
          [
            110,
            "CDISCPILOT01",
            "SV",
            "01-701-1115",
            8,
            "WEEK 8",
            56,
            "TREATMENT",
            "2013-01-23",
            "2013-01-23",
            55,
            55,
            ""
          ],
          [
            111,
            "CDISCPILOT01",
            "SV",
            "01-701-1115",
            101,
            "AE FOLLOW-UP",
            null,
            "FOLLOW-UP",
            "2013-02-14",
            "2013-02-14",
            77,
            77,
            ""
          ],
          [
            112,
            "CDISCPILOT01",
            "SV",
            "01-701-1115",
            201,
            "RETRIEVAL",
            168,
            "FOLLOW-UP",
            "2013-05-20",
            "2013-05-20",
            172,
            172,
            ""
          ],
          [
            113,
            "CDISCPILOT01",
            "SV",
            "01-701-1118",
            1,
            "SCREENING 1",
            -7,
            "SCREENING",
            "2014-02-27",
            "2014-02-27",
            -13,
            -13,
            ""
          ],
          [
            114,
            "CDISCPILOT01",
            "SV",
            "01-701-1118",
            2,
            "SCREENING 2",
            -1,
            "SCREENING",
            "2014-03-10",
            "2014-03-10",
            -2,
            -2,
            ""
          ],
          [
            115,
            "CDISCPILOT01",
            "SV",
            "01-701-1118",
            3,
            "BASELINE",
            1,
            "TREATMENT",
            "2014-03-12",
            "2014-03-12",
            1,
            1,
            ""
          ],
          [
            116,
            "CDISCPILOT01",
            "SV",
            "01-701-1118",
            3.5,
            "AMBUL ECG PLACEMENT",
            13,
            "TREATMENT",
            "2014-03-25",
            "2014-03-25",
            14,
            14,
            ""
          ],
          [
            117,
            "CDISCPILOT01",
            "SV",
            "01-701-1118",
            4,
            "WEEK 2",
            14,
            "TREATMENT",
            "2014-03-26",
            "2014-03-26",
            15,
            15,
            ""
          ],
          [
            118,
            "CDISCPILOT01",
            "SV",
            "01-701-1118",
            5,
            "WEEK 4",
            28,
            "TREATMENT",
            "2014-04-09",
            "2014-04-09",
            29,
            29,
            ""
          ],
          [
            119,
            "CDISCPILOT01",
            "SV",
            "01-701-1118",
            6,
            "AMBUL ECG REMOVAL",
            30,
            "TREATMENT",
            "2014-04-11",
            "2014-04-11",
            31,
            31,
            ""
          ],
          [
            120,
            "CDISCPILOT01",
            "SV",
            "01-701-1118",
            7,
            "WEEK 6",
            42,
            "TREATMENT",
            "2014-04-23",
            "2014-04-23",
            43,
            43,
            ""
          ],
          [
            121,
            "CDISCPILOT01",
            "SV",
            "01-701-1118",
            8,
            "WEEK 8",
            56,
            "TREATMENT",
            "2014-05-08",
            "2014-05-08",
            58,
            58,
            ""
          ],
          [
            122,
            "CDISCPILOT01",
            "SV",
            "01-701-1118",
            8.1,
            "WEEK 10 (T)",
            70,
            "TREATMENT",
            "2014-05-21",
            "2014-05-21",
            71,
            71,
            ""
          ],
          [
            123,
            "CDISCPILOT01",
            "SV",
            "01-701-1118",
            9,
            "WEEK 12",
            84,
            "TREATMENT",
            "2014-06-05",
            "2014-06-05",
            86,
            86,
            ""
          ],
          [
            124,
            "CDISCPILOT01",
            "SV",
            "01-701-1118",
            9.1,
            "WEEK 14 (T)",
            98,
            "TREATMENT",
            "2014-06-18",
            "2014-06-18",
            99,
            99,
            ""
          ],
          [
            125,
            "CDISCPILOT01",
            "SV",
            "01-701-1118",
            10,
            "WEEK 16",
            112,
            "TREATMENT",
            "2014-07-02",
            "2014-07-02",
            113,
            113,
            ""
          ],
          [
            126,
            "CDISCPILOT01",
            "SV",
            "01-701-1118",
            10.1,
            "WEEK 18 (T)",
            126,
            "TREATMENT",
            "2014-07-16",
            "2014-07-16",
            127,
            127,
            ""
          ],
          [
            127,
            "CDISCPILOT01",
            "SV",
            "01-701-1118",
            11,
            "WEEK 20",
            140,
            "TREATMENT",
            "2014-07-30",
            "2014-07-30",
            141,
            141,
            ""
          ],
          [
            128,
            "CDISCPILOT01",
            "SV",
            "01-701-1118",
            11.1,
            "WEEK 22 (T)",
            154,
            "TREATMENT",
            "2014-07-13",
            "2014-07-13",
            124,
            124,
            ""
          ],
          [
            129,
            "CDISCPILOT01",
            "SV",
            "01-701-1118",
            12,
            "WEEK 24",
            168,
            "TREATMENT",
            "2014-08-27",
            "2014-08-27",
            169,
            169,
            ""
          ],
          [
            130,
            "CDISCPILOT01",
            "SV",
            "01-701-1118",
            13,
            "WEEK 26",
            182,
            "TREATMENT",
            "2014-09-09",
            "2014-09-09",
            182,
            182,
            ""
          ],
          [
            131,
            "CDISCPILOT01",
            "SV",
            "01-701-1130",
            1,
            "SCREENING 1",
            -7,
            "SCREENING",
            "2014-02-09",
            "2014-02-09",
            -6,
            -6,
            ""
          ],
          [
            132,
            "CDISCPILOT01",
            "SV",
            "01-701-1130",
            2,
            "SCREENING 2",
            -1,
            "SCREENING",
            "2014-02-13",
            "2014-02-13",
            -2,
            -2,
            ""
          ],
          [
            133,
            "CDISCPILOT01",
            "SV",
            "01-701-1130",
            3,
            "BASELINE",
            1,
            "TREATMENT",
            "2014-02-15",
            "2014-02-15",
            1,
            1,
            ""
          ],
          [
            134,
            "CDISCPILOT01",
            "SV",
            "01-701-1130",
            3.5,
            "AMBUL ECG PLACEMENT",
            13,
            "TREATMENT",
            "2014-02-28",
            "2014-02-28",
            14,
            14,
            ""
          ],
          [
            135,
            "CDISCPILOT01",
            "SV",
            "01-701-1130",
            4,
            "WEEK 2",
            14,
            "TREATMENT",
            "2014-03-01",
            "2014-03-01",
            15,
            15,
            ""
          ],
          [
            136,
            "CDISCPILOT01",
            "SV",
            "01-701-1130",
            5,
            "WEEK 4",
            28,
            "TREATMENT",
            "2014-03-15",
            "2014-03-15",
            29,
            29,
            ""
          ],
          [
            137,
            "CDISCPILOT01",
            "SV",
            "01-701-1130",
            6,
            "AMBUL ECG REMOVAL",
            30,
            "TREATMENT",
            "2014-03-17",
            "2014-03-17",
            31,
            31,
            ""
          ],
          [
            138,
            "CDISCPILOT01",
            "SV",
            "01-701-1130",
            7,
            "WEEK 6",
            42,
            "TREATMENT",
            "2014-03-29",
            "2014-03-29",
            43,
            43,
            ""
          ],
          [
            139,
            "CDISCPILOT01",
            "SV",
            "01-701-1130",
            8,
            "WEEK 8",
            56,
            "TREATMENT",
            "2014-04-12",
            "2014-04-12",
            57,
            57,
            ""
          ],
          [
            140,
            "CDISCPILOT01",
            "SV",
            "01-701-1130",
            8.1,
            "WEEK 10 (T)",
            70,
            "TREATMENT",
            "2014-04-26",
            "2014-04-26",
            71,
            71,
            ""
          ],
          [
            141,
            "CDISCPILOT01",
            "SV",
            "01-701-1130",
            9,
            "WEEK 12",
            84,
            "TREATMENT",
            "2014-05-16",
            "2014-05-16",
            91,
            91,
            ""
          ],
          [
            142,
            "CDISCPILOT01",
            "SV",
            "01-701-1130",
            9.1,
            "WEEK 14 (T)",
            98,
            "TREATMENT",
            "2014-05-24",
            "2014-05-24",
            99,
            99,
            ""
          ],
          [
            143,
            "CDISCPILOT01",
            "SV",
            "01-701-1130",
            10,
            "WEEK 16",
            112,
            "TREATMENT",
            "2014-06-07",
            "2014-06-07",
            113,
            113,
            ""
          ],
          [
            144,
            "CDISCPILOT01",
            "SV",
            "01-701-1130",
            10.1,
            "WEEK 18 (T)",
            126,
            "TREATMENT",
            "2014-06-21",
            "2014-06-21",
            127,
            127,
            ""
          ],
          [
            145,
            "CDISCPILOT01",
            "SV",
            "01-701-1130",
            11,
            "WEEK 20",
            140,
            "TREATMENT",
            "2014-07-02",
            "2014-07-02",
            138,
            138,
            ""
          ],
          [
            146,
            "CDISCPILOT01",
            "SV",
            "01-701-1130",
            11.1,
            "WEEK 22 (T)",
            154,
            "TREATMENT",
            "2014-07-19",
            "2014-07-19",
            155,
            155,
            ""
          ],
          [
            147,
            "CDISCPILOT01",
            "SV",
            "01-701-1130",
            12,
            "WEEK 24",
            168,
            "TREATMENT",
            "2014-08-02",
            "2014-08-02",
            169,
            169,
            ""
          ],
          [
            148,
            "CDISCPILOT01",
            "SV",
            "01-701-1130",
            13,
            "WEEK 26",
            182,
            "TREATMENT",
            "2014-08-16",
            "2014-08-16",
            183,
            183,
            ""
          ],
          [
            149,
            "CDISCPILOT01",
            "SV",
            "01-701-1133",
            1,
            "SCREENING 1",
            -7,
            "SCREENING",
            "2012-10-23",
            "2012-10-23",
            -5,
            -5,
            ""
          ],
          [
            150,
            "CDISCPILOT01",
            "SV",
            "01-701-1133",
            2,
            "SCREENING 2",
            -1,
            "SCREENING",
            "2012-10-26",
            "2012-10-26",
            -2,
            -2,
            ""
          ],
          [
            151,
            "CDISCPILOT01",
            "SV",
            "01-701-1133",
            3,
            "BASELINE",
            1,
            "TREATMENT",
            "2012-10-28",
            "2012-10-28",
            1,
            1,
            ""
          ],
          [
            152,
            "CDISCPILOT01",
            "SV",
            "01-701-1133",
            3.5,
            "AMBUL ECG PLACEMENT",
            13,
            "TREATMENT",
            "2012-11-11",
            "2012-11-11",
            15,
            15,
            ""
          ],
          [
            153,
            "CDISCPILOT01",
            "SV",
            "01-701-1133",
            4,
            "WEEK 2",
            14,
            "TREATMENT",
            "2012-11-12",
            "2012-11-12",
            16,
            16,
            ""
          ],
          [
            154,
            "CDISCPILOT01",
            "SV",
            "01-701-1133",
            5,
            "WEEK 4",
            28,
            "TREATMENT",
            "2012-11-26",
            "2012-11-26",
            30,
            30,
            ""
          ],
          [
            155,
            "CDISCPILOT01",
            "SV",
            "01-701-1133",
            6,
            "AMBUL ECG REMOVAL",
            30,
            "TREATMENT",
            "2012-11-28",
            "2012-11-28",
            32,
            32,
            ""
          ],
          [
            156,
            "CDISCPILOT01",
            "SV",
            "01-701-1133",
            7,
            "WEEK 6",
            42,
            "TREATMENT",
            "2012-12-11",
            "2012-12-11",
            45,
            45,
            ""
          ],
          [
            157,
            "CDISCPILOT01",
            "SV",
            "01-701-1133",
            8,
            "WEEK 8",
            56,
            "TREATMENT",
            "2012-12-24",
            "2012-12-24",
            58,
            58,
            ""
          ],
          [
            158,
            "CDISCPILOT01",
            "SV",
            "01-701-1133",
            8.1,
            "WEEK 10 (T)",
            70,
            "TREATMENT",
            "2013-01-07",
            "2013-01-07",
            72,
            72,
            ""
          ],
          [
            159,
            "CDISCPILOT01",
            "SV",
            "01-701-1133",
            9,
            "WEEK 12",
            84,
            "TREATMENT",
            "2013-01-22",
            "2013-01-22",
            87,
            87,
            ""
          ],
          [
            160,
            "CDISCPILOT01",
            "SV",
            "01-701-1133",
            9.1,
            "WEEK 14 (T)",
            98,
            "TREATMENT",
            "2013-02-04",
            "2013-02-04",
            100,
            100,
            ""
          ],
          [
            161,
            "CDISCPILOT01",
            "SV",
            "01-701-1133",
            10,
            "WEEK 16",
            112,
            "TREATMENT",
            "2013-02-18",
            "2013-02-18",
            114,
            114,
            ""
          ],
          [
            162,
            "CDISCPILOT01",
            "SV",
            "01-701-1133",
            10.1,
            "WEEK 18 (T)",
            126,
            "TREATMENT",
            "2013-03-04",
            "2013-03-04",
            128,
            128,
            ""
          ],
          [
            163,
            "CDISCPILOT01",
            "SV",
            "01-701-1133",
            11,
            "WEEK 20",
            140,
            "TREATMENT",
            "2013-03-18",
            "2013-03-18",
            142,
            142,
            ""
          ],
          [
            164,
            "CDISCPILOT01",
            "SV",
            "01-701-1133",
            11.1,
            "WEEK 22 (T)",
            154,
            "TREATMENT",
            "2013-04-01",
            "2013-04-01",
            156,
            156,
            ""
          ],
          [
            165,
            "CDISCPILOT01",
            "SV",
            "01-701-1133",
            12,
            "WEEK 24",
            168,
            "TREATMENT",
            "2013-04-18",
            "2013-04-18",
            173,
            173,
            ""
          ],
          [
            166,
            "CDISCPILOT01",
            "SV",
            "01-701-1133",
            13,
            "WEEK 26",
            182,
            "TREATMENT",
            "2013-04-29",
            "2013-04-29",
            184,
            184,
            ""
          ],
          [
            167,
            "CDISCPILOT01",
            "SV",
            "01-701-1145",
            1,
            "SCREENING 1",
            -7,
            "SCREENING",
            "2013-09-05",
            "2013-09-05",
            null,
            null,
            ""
          ],
          [
            168,
            "CDISCPILOT01",
            "SV",
            "01-701-1146",
            1,
            "SCREENING 1",
            -7,
            "SCREENING",
            "2013-05-07",
            "2013-05-07",
            -13,
            -13,
            ""
          ],
          [
            169,
            "CDISCPILOT01",
            "SV",
            "01-701-1146",
            2,
            "SCREENING 2",
            -1,
            "SCREENING",
            "2013-05-18",
            "2013-05-18",
            -2,
            -2,
            ""
          ],
          [
            170,
            "CDISCPILOT01",
            "SV",
            "01-701-1146",
            3,
            "BASELINE",
            1,
            "TREATMENT",
            "2013-05-20",
            "2013-05-20",
            1,
            1,
            ""
          ],
          [
            171,
            "CDISCPILOT01",
            "SV",
            "01-701-1146",
            3.5,
            "AMBUL ECG PLACEMENT",
            13,
            "TREATMENT",
            "2013-06-02",
            "2013-06-02",
            14,
            14,
            ""
          ],
          [
            172,
            "CDISCPILOT01",
            "SV",
            "01-701-1146",
            4,
            "WEEK 2",
            14,
            "TREATMENT",
            "2013-06-03",
            "2013-06-03",
            15,
            15,
            ""
          ],
          [
            173,
            "CDISCPILOT01",
            "SV",
            "01-701-1146",
            5,
            "WEEK 4",
            28,
            "TREATMENT",
            "2013-06-16",
            "2013-06-16",
            28,
            28,
            ""
          ],
          [
            174,
            "CDISCPILOT01",
            "SV",
            "01-701-1146",
            6,
            "AMBUL ECG REMOVAL",
            30,
            "TREATMENT",
            "2013-06-18",
            "2013-06-18",
            30,
            30,
            ""
          ],
          [
            175,
            "CDISCPILOT01",
            "SV",
            "01-701-1146",
            7,
            "WEEK 6",
            42,
            "TREATMENT",
            "2013-06-30",
            "2013-06-30",
            42,
            42,
            ""
          ],
          [
            176,
            "CDISCPILOT01",
            "SV",
            "01-701-1146",
            101,
            "AE FOLLOW-UP",
            null,
            "FOLLOW-UP",
            "2013-07-15",
            "2013-07-15",
            57,
            57,
            ""
          ],
          [
            177,
            "CDISCPILOT01",
            "SV",
            "01-701-1148",
            1,
            "SCREENING 1",
            -7,
            "SCREENING",
            "2013-08-14",
            "2013-08-14",
            -9,
            -9,
            ""
          ],
          [
            178,
            "CDISCPILOT01",
            "SV",
            "01-701-1148",
            2,
            "SCREENING 2",
            -1,
            "SCREENING",
            "2013-08-21",
            "2013-08-21",
            -2,
            -2,
            ""
          ],
          [
            179,
            "CDISCPILOT01",
            "SV",
            "01-701-1148",
            3,
            "BASELINE",
            1,
            "TREATMENT",
            "2013-08-23",
            "2013-08-23",
            1,
            1,
            ""
          ],
          [
            180,
            "CDISCPILOT01",
            "SV",
            "01-701-1148",
            3.5,
            "AMBUL ECG PLACEMENT",
            13,
            "TREATMENT",
            "2013-09-04",
            "2013-09-04",
            13,
            13,
            ""
          ],
          [
            181,
            "CDISCPILOT01",
            "SV",
            "01-701-1148",
            4,
            "WEEK 2",
            14,
            "TREATMENT",
            "2013-09-05",
            "2013-09-05",
            14,
            14,
            ""
          ],
          [
            182,
            "CDISCPILOT01",
            "SV",
            "01-701-1148",
            5,
            "WEEK 4",
            28,
            "TREATMENT",
            "2013-09-19",
            "2013-09-19",
            28,
            28,
            ""
          ],
          [
            183,
            "CDISCPILOT01",
            "SV",
            "01-701-1148",
            6,
            "AMBUL ECG REMOVAL",
            30,
            "TREATMENT",
            "2013-09-21",
            "2013-09-21",
            30,
            30,
            ""
          ],
          [
            184,
            "CDISCPILOT01",
            "SV",
            "01-701-1148",
            7,
            "WEEK 6",
            42,
            "TREATMENT",
            "2013-10-03",
            "2013-10-03",
            42,
            42,
            ""
          ],
          [
            185,
            "CDISCPILOT01",
            "SV",
            "01-701-1148",
            8,
            "WEEK 8",
            56,
            "TREATMENT",
            "2013-10-18",
            "2013-10-18",
            57,
            57,
            ""
          ],
          [
            186,
            "CDISCPILOT01",
            "SV",
            "01-701-1148",
            8.1,
            "WEEK 10 (T)",
            70,
            "TREATMENT",
            "2013-11-01",
            "2013-11-01",
            71,
            71,
            ""
          ],
          [
            187,
            "CDISCPILOT01",
            "SV",
            "01-701-1148",
            9,
            "WEEK 12",
            84,
            "TREATMENT",
            "2013-11-17",
            "2013-11-17",
            87,
            87,
            ""
          ],
          [
            188,
            "CDISCPILOT01",
            "SV",
            "01-701-1148",
            9.1,
            "WEEK 14 (T)",
            98,
            "TREATMENT",
            "2013-11-30",
            "2013-11-30",
            100,
            100,
            ""
          ],
          [
            189,
            "CDISCPILOT01",
            "SV",
            "01-701-1148",
            10,
            "WEEK 16",
            112,
            "TREATMENT",
            "2013-12-13",
            "2013-12-13",
            113,
            113,
            ""
          ],
          [
            190,
            "CDISCPILOT01",
            "SV",
            "01-701-1148",
            10.1,
            "WEEK 18 (T)",
            126,
            "TREATMENT",
            "2013-12-27",
            "2013-12-27",
            127,
            127,
            ""
          ],
          [
            191,
            "CDISCPILOT01",
            "SV",
            "01-701-1148",
            11,
            "WEEK 20",
            140,
            "TREATMENT",
            "2014-01-10",
            "2014-01-10",
            141,
            141,
            ""
          ],
          [
            192,
            "CDISCPILOT01",
            "SV",
            "01-701-1148",
            11.1,
            "WEEK 22 (T)",
            154,
            "TREATMENT",
            "2014-01-24",
            "2014-01-24",
            155,
            155,
            ""
          ],
          [
            193,
            "CDISCPILOT01",
            "SV",
            "01-701-1148",
            12,
            "WEEK 24",
            168,
            "TREATMENT",
            "2014-02-08",
            "2014-02-08",
            170,
            170,
            ""
          ],
          [
            194,
            "CDISCPILOT01",
            "SV",
            "01-701-1148",
            13,
            "WEEK 26",
            182,
            "TREATMENT",
            "2014-02-20",
            "2014-02-20",
            182,
            182,
            ""
          ],
          [
            195,
            "CDISCPILOT01",
            "SV",
            "01-701-1153",
            1,
            "SCREENING 1",
            -7,
            "SCREENING",
            "2013-09-06",
            "2013-09-06",
            -17,
            -17,
            ""
          ],
          [
            196,
            "CDISCPILOT01",
            "SV",
            "01-701-1153",
            2,
            "SCREENING 2",
            -1,
            "SCREENING",
            "2013-09-18",
            "2013-09-18",
            -5,
            -5,
            ""
          ],
          [
            197,
            "CDISCPILOT01",
            "SV",
            "01-701-1153",
            3,
            "BASELINE",
            1,
            "TREATMENT",
            "2013-09-23",
            "2013-09-23",
            1,
            1,
            ""
          ],
          [
            198,
            "CDISCPILOT01",
            "SV",
            "01-701-1153",
            3.5,
            "AMBUL ECG PLACEMENT",
            13,
            "TREATMENT",
            "2013-10-07",
            "2013-10-07",
            15,
            15,
            ""
          ],
          [
            199,
            "CDISCPILOT01",
            "SV",
            "01-701-1153",
            4,
            "WEEK 2",
            14,
            "TREATMENT",
            "2013-10-08",
            "2013-10-08",
            16,
            16,
            ""
          ],
          [
            200,
            "CDISCPILOT01",
            "SV",
            "01-701-1153",
            5,
            "WEEK 4",
            28,
            "TREATMENT",
            "2013-10-19",
            "2013-10-19",
            27,
            27,
            ""
          ],
          [
            201,
            "CDISCPILOT01",
            "SV",
            "01-701-1153",
            5.1,
            "UNSCHEDULED 5.1",
            null,
            "TREATMENT",
            "2013-10-19",
            "2013-10-19",
            27,
            27,
            "Unplanned visit to complete unscheduled assessments"
          ],
          [
            202,
            "CDISCPILOT01",
            "SV",
            "01-701-1153",
            6,
            "AMBUL ECG REMOVAL",
            30,
            "TREATMENT",
            "2013-10-28",
            "2013-10-28",
            36,
            36,
            ""
          ],
          [
            203,
            "CDISCPILOT01",
            "SV",
            "01-701-1153",
            7,
            "WEEK 6",
            42,
            "TREATMENT",
            "2013-11-04",
            "2013-11-04",
            43,
            43,
            ""
          ],
          [
            204,
            "CDISCPILOT01",
            "SV",
            "01-701-1153",
            8,
            "WEEK 8",
            56,
            "TREATMENT",
            "2013-11-18",
            "2013-11-18",
            57,
            57,
            ""
          ],
          [
            205,
            "CDISCPILOT01",
            "SV",
            "01-701-1153",
            8.1,
            "WEEK 10 (T)",
            70,
            "TREATMENT",
            "2013-12-02",
            "2013-12-02",
            71,
            71,
            ""
          ],
          [
            206,
            "CDISCPILOT01",
            "SV",
            "01-701-1153",
            9,
            "WEEK 12",
            84,
            "TREATMENT",
            "2013-12-16",
            "2013-12-16",
            85,
            85,
            ""
          ],
          [
            207,
            "CDISCPILOT01",
            "SV",
            "01-701-1153",
            9.1,
            "WEEK 14 (T)",
            98,
            "TREATMENT",
            "2013-12-30",
            "2013-12-30",
            99,
            99,
            ""
          ],
          [
            208,
            "CDISCPILOT01",
            "SV",
            "01-701-1153",
            9.2,
            "UNSCHEDULED 9.2",
            null,
            "TREATMENT",
            "2014-01-08",
            "2014-01-08",
            108,
            108,
            "Unplanned visit to complete unscheduled assessments"
          ],
          [
            209,
            "CDISCPILOT01",
            "SV",
            "01-701-1153",
            9.3,
            "UNSCHEDULED 9.3",
            null,
            "TREATMENT",
            "2013-12-30",
            "2013-12-30",
            99,
            99,
            "Unplanned visit to complete unscheduled assessments"
          ],
          [
            210,
            "CDISCPILOT01",
            "SV",
            "01-701-1153",
            10,
            "WEEK 16",
            112,
            "TREATMENT",
            "2014-01-08",
            "2014-01-08",
            108,
            108,
            ""
          ],
          [
            211,
            "CDISCPILOT01",
            "SV",
            "01-701-1153",
            11,
            "WEEK 20",
            140,
            "TREATMENT",
            "2014-02-11",
            "2014-02-11",
            142,
            142,
            ""
          ],
          [
            212,
            "CDISCPILOT01",
            "SV",
            "01-701-1153",
            11.1,
            "WEEK 22 (T)",
            154,
            "TREATMENT",
            "2014-02-25",
            "2014-02-25",
            156,
            156,
            ""
          ],
          [
            213,
            "CDISCPILOT01",
            "SV",
            "01-701-1153",
            12,
            "WEEK 24",
            168,
            "TREATMENT",
            "2014-03-11",
            "2014-03-11",
            170,
            170,
            ""
          ],
          [
            214,
            "CDISCPILOT01",
            "SV",
            "01-701-1153",
            13,
            "WEEK 26",
            182,
            "TREATMENT",
            "2014-04-01",
            "2014-04-01",
            191,
            191,
            ""
          ],
          [
            215,
            "CDISCPILOT01",
            "SV",
            "01-701-1162",
            1,
            "SCREENING 1",
            -7,
            "SCREENING",
            "2013-04-18",
            "2013-04-18",
            null,
            null,
            ""
          ],
          [
            216,
            "CDISCPILOT01",
            "SV",
            "01-701-1176",
            1,
            "SCREENING 1",
            -7,
            "SCREENING",
            "2012-09-30",
            "2012-09-30",
            null,
            null,
            ""
          ],
          [
            217,
            "CDISCPILOT01",
            "SV",
            "01-701-1180",
            1,
            "SCREENING 1",
            -7,
            "SCREENING",
            "2013-01-28",
            "2013-01-28",
            -15,
            -15,
            ""
          ],
          [
            218,
            "CDISCPILOT01",
            "SV",
            "01-701-1180",
            2,
            "SCREENING 2",
            -1,
            "SCREENING",
            "2013-02-10",
            "2013-02-10",
            -2,
            -2,
            ""
          ],
          [
            219,
            "CDISCPILOT01",
            "SV",
            "01-701-1180",
            3,
            "BASELINE",
            1,
            "TREATMENT",
            "2013-02-12",
            "2013-02-12",
            1,
            1,
            ""
          ],
          [
            220,
            "CDISCPILOT01",
            "SV",
            "01-701-1180",
            3.5,
            "AMBUL ECG PLACEMENT",
            13,
            "TREATMENT",
            "2013-02-24",
            "2013-02-24",
            13,
            13,
            ""
          ],
          [
            221,
            "CDISCPILOT01",
            "SV",
            "01-701-1180",
            4,
            "WEEK 2",
            14,
            "TREATMENT",
            "2013-02-25",
            "2013-02-25",
            14,
            14,
            ""
          ],
          [
            222,
            "CDISCPILOT01",
            "SV",
            "01-701-1180",
            5,
            "WEEK 4",
            28,
            "TREATMENT",
            "2013-03-11",
            "2013-03-11",
            28,
            28,
            ""
          ],
          [
            223,
            "CDISCPILOT01",
            "SV",
            "01-701-1180",
            6,
            "AMBUL ECG REMOVAL",
            30,
            "TREATMENT",
            "2013-03-13",
            "2013-03-13",
            30,
            30,
            ""
          ],
          [
            224,
            "CDISCPILOT01",
            "SV",
            "01-701-1180",
            7,
            "WEEK 6",
            42,
            "TREATMENT",
            "2013-03-23",
            "2013-03-23",
            40,
            40,
            ""
          ],
          [
            225,
            "CDISCPILOT01",
            "SV",
            "01-701-1180",
            101,
            "AE FOLLOW-UP",
            null,
            "FOLLOW-UP",
            "2013-04-07",
            "2013-04-07",
            55,
            55,
            ""
          ],
          [
            226,
            "CDISCPILOT01",
            "SV",
            "01-701-1181",
            1,
            "SCREENING 1",
            -7,
            "SCREENING",
            "2013-11-26",
            "2013-11-26",
            -9,
            -9,
            ""
          ],
          [
            227,
            "CDISCPILOT01",
            "SV",
            "01-701-1181",
            2,
            "SCREENING 2",
            -1,
            "SCREENING",
            "2013-12-03",
            "2013-12-03",
            -2,
            -2,
            ""
          ],
          [
            228,
            "CDISCPILOT01",
            "SV",
            "01-701-1181",
            3,
            "BASELINE",
            1,
            "TREATMENT",
            "2013-12-05",
            "2013-12-05",
            1,
            1,
            ""
          ],
          [
            229,
            "CDISCPILOT01",
            "SV",
            "01-701-1181",
            4,
            "WEEK 2",
            14,
            "TREATMENT",
            "2013-12-12",
            "2013-12-12",
            8,
            8,
            ""
          ],
          [
            230,
            "CDISCPILOT01",
            "SV",
            "01-701-1181",
            101,
            "AE FOLLOW-UP",
            null,
            "FOLLOW-UP",
            "2013-12-20",
            "2013-12-20",
            16,
            16,
            ""
          ],
          [
            231,
            "CDISCPILOT01",
            "SV",
            "01-701-1181",
            201,
            "RETRIEVAL",
            168,
            "FOLLOW-UP",
            "2014-05-23",
            "2014-05-23",
            170,
            170,
            ""
          ],
          [
            232,
            "CDISCPILOT01",
            "SV",
            "01-701-1188",
            1,
            "SCREENING 1",
            -7,
            "SCREENING",
            "2013-02-03",
            "2013-02-03",
            -12,
            -12,
            ""
          ],
          [
            233,
            "CDISCPILOT01",
            "SV",
            "01-701-1188",
            2,
            "SCREENING 2",
            -1,
            "SCREENING",
            "2013-02-10",
            "2013-02-10",
            -5,
            -5,
            ""
          ],
          [
            234,
            "CDISCPILOT01",
            "SV",
            "01-701-1188",
            3,
            "BASELINE",
            1,
            "TREATMENT",
            "2013-02-15",
            "2013-02-15",
            1,
            1,
            ""
          ],
          [
            235,
            "CDISCPILOT01",
            "SV",
            "01-701-1188",
            3.5,
            "AMBUL ECG PLACEMENT",
            13,
            "TREATMENT",
            "2013-03-01",
            "2013-03-01",
            15,
            15,
            ""
          ],
          [
            236,
            "CDISCPILOT01",
            "SV",
            "01-701-1188",
            4,
            "WEEK 2",
            14,
            "TREATMENT",
            "2013-03-02",
            "2013-03-02",
            16,
            16,
            ""
          ],
          [
            237,
            "CDISCPILOT01",
            "SV",
            "01-701-1188",
            5,
            "WEEK 4",
            28,
            "TREATMENT",
            "2013-03-16",
            "2013-03-16",
            30,
            30,
            ""
          ],
          [
            238,
            "CDISCPILOT01",
            "SV",
            "01-701-1188",
            6,
            "AMBUL ECG REMOVAL",
            30,
            "TREATMENT",
            "2013-03-18",
            "2013-03-18",
            32,
            32,
            ""
          ],
          [
            239,
            "CDISCPILOT01",
            "SV",
            "01-701-1188",
            7,
            "WEEK 6",
            42,
            "TREATMENT",
            "2013-03-25",
            "2013-03-25",
            39,
            39,
            ""
          ],
          [
            240,
            "CDISCPILOT01",
            "SV",
            "01-701-1188",
            101,
            "AE FOLLOW-UP",
            null,
            "FOLLOW-UP",
            "2013-06-01",
            "2013-06-01",
            107,
            107,
            ""
          ],
          [
            241,
            "CDISCPILOT01",
            "SV",
            "01-701-1188",
            201,
            "RETRIEVAL",
            168,
            "FOLLOW-UP",
            "2013-08-04",
            "2013-08-04",
            171,
            171,
            ""
          ],
          [
            242,
            "CDISCPILOT01",
            "SV",
            "01-701-1192",
            1,
            "SCREENING 1",
            -7,
            "SCREENING",
            "2012-07-08",
            "2012-07-08",
            -14,
            -14,
            ""
          ],
          [
            243,
            "CDISCPILOT01",
            "SV",
            "01-701-1192",
            2,
            "SCREENING 2",
            -1,
            "SCREENING",
            "2012-07-20",
            "2012-07-20",
            -2,
            -2,
            ""
          ],
          [
            244,
            "CDISCPILOT01",
            "SV",
            "01-701-1192",
            3,
            "BASELINE",
            1,
            "TREATMENT",
            "2012-07-22",
            "2012-07-22",
            1,
            1,
            ""
          ],
          [
            245,
            "CDISCPILOT01",
            "SV",
            "01-701-1192",
            3.5,
            "AMBUL ECG PLACEMENT",
            13,
            "TREATMENT",
            "2012-08-04",
            "2012-08-04",
            14,
            14,
            ""
          ],
          [
            246,
            "CDISCPILOT01",
            "SV",
            "01-701-1192",
            4,
            "WEEK 2",
            14,
            "TREATMENT",
            "2012-08-07",
            "2012-08-07",
            17,
            17,
            ""
          ],
          [
            247,
            "CDISCPILOT01",
            "SV",
            "01-701-1192",
            5,
            "WEEK 4",
            28,
            "TREATMENT",
            "2012-08-21",
            "2012-08-21",
            31,
            31,
            ""
          ],
          [
            248,
            "CDISCPILOT01",
            "SV",
            "01-701-1192",
            5.1,
            "UNSCHEDULED 5.1",
            null,
            "TREATMENT",
            "2012-08-21",
            "2012-08-21",
            31,
            31,
            "Unplanned visit to complete unscheduled assessments"
          ],
          [
            249,
            "CDISCPILOT01",
            "SV",
            "01-701-1192",
            6,
            "AMBUL ECG REMOVAL",
            30,
            "TREATMENT",
            "2012-08-23",
            "2012-08-23",
            33,
            33,
            ""
          ],
          [
            250,
            "CDISCPILOT01",
            "SV",
            "01-701-1192",
            7,
            "WEEK 6",
            42,
            "TREATMENT",
            "2012-09-04",
            "2012-09-04",
            45,
            45,
            ""
          ],
          [
            251,
            "CDISCPILOT01",
            "SV",
            "01-701-1192",
            8,
            "WEEK 8",
            56,
            "TREATMENT",
            "2012-09-23",
            "2012-09-23",
            64,
            64,
            ""
          ],
          [
            252,
            "CDISCPILOT01",
            "SV",
            "01-701-1192",
            8.1,
            "WEEK 10 (T)",
            70,
            "TREATMENT",
            "2012-09-30",
            "2012-09-30",
            71,
            71,
            ""
          ],
          [
            253,
            "CDISCPILOT01",
            "SV",
            "01-701-1192",
            9,
            "WEEK 12",
            84,
            "TREATMENT",
            "2012-10-14",
            "2012-10-14",
            85,
            85,
            ""
          ],
          [
            254,
            "CDISCPILOT01",
            "SV",
            "01-701-1192",
            9.1,
            "WEEK 14 (T)",
            98,
            "TREATMENT",
            "2012-10-29",
            "2012-10-29",
            100,
            100,
            ""
          ],
          [
            255,
            "CDISCPILOT01",
            "SV",
            "01-701-1192",
            10,
            "WEEK 16",
            112,
            "TREATMENT",
            "2012-11-15",
            "2012-11-15",
            117,
            117,
            ""
          ],
          [
            256,
            "CDISCPILOT01",
            "SV",
            "01-701-1192",
            10.1,
            "WEEK 18 (T)",
            126,
            "TREATMENT",
            "2012-11-26",
            "2012-11-26",
            128,
            128,
            ""
          ],
          [
            257,
            "CDISCPILOT01",
            "SV",
            "01-701-1192",
            11,
            "WEEK 20",
            140,
            "TREATMENT",
            "2012-12-13",
            "2012-12-13",
            145,
            145,
            ""
          ],
          [
            258,
            "CDISCPILOT01",
            "SV",
            "01-701-1192",
            11.1,
            "WEEK 22 (T)",
            154,
            "TREATMENT",
            "2012-12-27",
            "2012-12-27",
            159,
            159,
            ""
          ],
          [
            259,
            "CDISCPILOT01",
            "SV",
            "01-701-1192",
            12,
            "WEEK 24",
            168,
            "TREATMENT",
            "2013-01-11",
            "2013-01-11",
            174,
            174,
            ""
          ],
          [
            260,
            "CDISCPILOT01",
            "SV",
            "01-701-1192",
            13,
            "WEEK 26",
            182,
            "TREATMENT",
            "2013-01-20",
            "2013-01-20",
            183,
            183,
            ""
          ],
          [
            261,
            "CDISCPILOT01",
            "SV",
            "01-701-1203",
            1,
            "SCREENING 1",
            -7,
            "SCREENING",
            "2013-01-25",
            "2013-01-25",
            -8,
            -8,
            ""
          ],
          [
            262,
            "CDISCPILOT01",
            "SV",
            "01-701-1203",
            2,
            "SCREENING 2",
            -1,
            "SCREENING",
            "2013-02-01",
            "2013-02-01",
            -1,
            -1,
            ""
          ],
          [
            263,
            "CDISCPILOT01",
            "SV",
            "01-701-1203",
            3,
            "BASELINE",
            1,
            "TREATMENT",
            "2013-02-02",
            "2013-02-02",
            1,
            1,
            ""
          ],
          [
            264,
            "CDISCPILOT01",
            "SV",
            "01-701-1203",
            4,
            "WEEK 2",
            14,
            "TREATMENT",
            "2013-02-23",
            "2013-02-23",
            22,
            22,
            ""
          ],
          [
            265,
            "CDISCPILOT01",
            "SV",
            "01-701-1203",
            5,
            "WEEK 4",
            28,
            "TREATMENT",
            "2013-03-02",
            "2013-03-02",
            29,
            29,
            ""
          ],
          [
            266,
            "CDISCPILOT01",
            "SV",
            "01-701-1203",
            6,
            "AMBUL ECG REMOVAL",
            30,
            "TREATMENT",
            "2013-03-04",
            "2013-03-04",
            31,
            31,
            ""
          ],
          [
            267,
            "CDISCPILOT01",
            "SV",
            "01-701-1203",
            7,
            "WEEK 6",
            42,
            "TREATMENT",
            "2013-03-16",
            "2013-03-16",
            43,
            43,
            ""
          ],
          [
            268,
            "CDISCPILOT01",
            "SV",
            "01-701-1203",
            8,
            "WEEK 8",
            56,
            "TREATMENT",
            "2013-03-30",
            "2013-03-30",
            57,
            57,
            ""
          ],
          [
            269,
            "CDISCPILOT01",
            "SV",
            "01-701-1203",
            8.1,
            "WEEK 10 (T)",
            70,
            "TREATMENT",
            "2013-04-13",
            "2013-04-13",
            71,
            71,
            ""
          ],
          [
            270,
            "CDISCPILOT01",
            "SV",
            "01-701-1203",
            9,
            "WEEK 12",
            84,
            "TREATMENT",
            "2013-05-09",
            "2013-05-09",
            97,
            97,
            ""
          ],
          [
            271,
            "CDISCPILOT01",
            "SV",
            "01-701-1203",
            9.1,
            "WEEK 14 (T)",
            98,
            "TREATMENT",
            "2013-05-11",
            "2013-05-11",
            99,
            99,
            ""
          ],
          [
            272,
            "CDISCPILOT01",
            "SV",
            "01-701-1203",
            10,
            "WEEK 16",
            112,
            "TREATMENT",
            "2013-05-25",
            "2013-05-25",
            113,
            113,
            ""
          ],
          [
            273,
            "CDISCPILOT01",
            "SV",
            "01-701-1203",
            10.1,
            "WEEK 18 (T)",
            126,
            "TREATMENT",
            "2013-06-08",
            "2013-06-08",
            127,
            127,
            ""
          ],
          [
            274,
            "CDISCPILOT01",
            "SV",
            "01-701-1203",
            11,
            "WEEK 20",
            140,
            "TREATMENT",
            "2013-06-22",
            "2013-06-22",
            141,
            141,
            ""
          ],
          [
            275,
            "CDISCPILOT01",
            "SV",
            "01-701-1203",
            11.1,
            "WEEK 22 (T)",
            154,
            "TREATMENT",
            "2013-07-07",
            "2013-07-07",
            156,
            156,
            ""
          ],
          [
            276,
            "CDISCPILOT01",
            "SV",
            "01-701-1203",
            12,
            "WEEK 24",
            168,
            "TREATMENT",
            "2013-07-22",
            "2013-07-22",
            171,
            171,
            ""
          ],
          [
            277,
            "CDISCPILOT01",
            "SV",
            "01-701-1203",
            13,
            "WEEK 26",
            182,
            "TREATMENT",
            "2013-08-03",
            "2013-08-03",
            183,
            183,
            ""
          ],
          [
            278,
            "CDISCPILOT01",
            "SV",
            "01-701-1211",
            1,
            "SCREENING 1",
            -7,
            "SCREENING",
            "2012-10-30",
            "2012-10-30",
            -16,
            -16,
            ""
          ],
          [
            279,
            "CDISCPILOT01",
            "SV",
            "01-701-1211",
            2,
            "SCREENING 2",
            -1,
            "SCREENING",
            "2012-11-14",
            "2012-11-14",
            -1,
            -1,
            ""
          ],
          [
            280,
            "CDISCPILOT01",
            "SV",
            "01-701-1211",
            3,
            "BASELINE",
            1,
            "TREATMENT",
            "2012-11-15",
            "2012-11-15",
            1,
            1,
            ""
          ],
          [
            281,
            "CDISCPILOT01",
            "SV",
            "01-701-1211",
            3.5,
            "AMBUL ECG PLACEMENT",
            13,
            "TREATMENT",
            "2012-11-27",
            "2012-11-27",
            13,
            13,
            ""
          ],
          [
            282,
            "CDISCPILOT01",
            "SV",
            "01-701-1211",
            4,
            "WEEK 2",
            14,
            "TREATMENT",
            "2012-11-28",
            "2012-11-28",
            14,
            14,
            ""
          ],
          [
            283,
            "CDISCPILOT01",
            "SV",
            "01-701-1211",
            5,
            "WEEK 4",
            28,
            "TREATMENT",
            "2012-12-11",
            "2012-12-11",
            27,
            27,
            ""
          ],
          [
            284,
            "CDISCPILOT01",
            "SV",
            "01-701-1211",
            6,
            "AMBUL ECG REMOVAL",
            30,
            "TREATMENT",
            "2012-12-13",
            "2012-12-13",
            29,
            29,
            ""
          ],
          [
            285,
            "CDISCPILOT01",
            "SV",
            "01-701-1211",
            7,
            "WEEK 6",
            42,
            "TREATMENT",
            "2012-12-25",
            "2012-12-25",
            41,
            41,
            ""
          ],
          [
            286,
            "CDISCPILOT01",
            "SV",
            "01-701-1211",
            8,
            "WEEK 8",
            56,
            "TREATMENT",
            "2013-01-08",
            "2013-01-08",
            55,
            55,
            ""
          ],
          [
            287,
            "CDISCPILOT01",
            "SV",
            "01-701-1211",
            9,
            "WEEK 12",
            84,
            "TREATMENT",
            "2013-01-14",
            "2013-01-14",
            61,
            61,
            ""
          ],
          [
            288,
            "CDISCPILOT01",
            "SV",
            "01-701-1234",
            1,
            "SCREENING 1",
            -7,
            "SCREENING",
            "2013-03-20",
            "2013-03-20",
            -10,
            -10,
            ""
          ],
          [
            289,
            "CDISCPILOT01",
            "SV",
            "01-701-1234",
            2,
            "SCREENING 2",
            -1,
            "SCREENING",
            "2013-03-28",
            "2013-03-28",
            -2,
            -2,
            ""
          ],
          [
            290,
            "CDISCPILOT01",
            "SV",
            "01-701-1234",
            3,
            "BASELINE",
            1,
            "TREATMENT",
            "2013-03-30",
            "2013-03-30",
            1,
            1,
            ""
          ],
          [
            291,
            "CDISCPILOT01",
            "SV",
            "01-701-1234",
            3.5,
            "AMBUL ECG PLACEMENT",
            13,
            "TREATMENT",
            "2013-04-20",
            "2013-04-20",
            22,
            22,
            ""
          ],
          [
            292,
            "CDISCPILOT01",
            "SV",
            "01-701-1234",
            4,
            "WEEK 2",
            14,
            "TREATMENT",
            "2013-04-21",
            "2013-04-21",
            23,
            23,
            ""
          ],
          [
            293,
            "CDISCPILOT01",
            "SV",
            "01-701-1234",
            5,
            "WEEK 4",
            28,
            "TREATMENT",
            "2013-04-28",
            "2013-04-28",
            30,
            30,
            ""
          ],
          [
            294,
            "CDISCPILOT01",
            "SV",
            "01-701-1234",
            6,
            "AMBUL ECG REMOVAL",
            30,
            "TREATMENT",
            "2013-04-30",
            "2013-04-30",
            32,
            32,
            ""
          ],
          [
            295,
            "CDISCPILOT01",
            "SV",
            "01-701-1234",
            7,
            "WEEK 6",
            42,
            "TREATMENT",
            "2013-05-08",
            "2013-05-08",
            40,
            40,
            ""
          ],
          [
            296,
            "CDISCPILOT01",
            "SV",
            "01-701-1234",
            8,
            "WEEK 8",
            56,
            "TREATMENT",
            "2013-05-26",
            "2013-05-26",
            58,
            58,
            ""
          ],
          [
            297,
            "CDISCPILOT01",
            "SV",
            "01-701-1234",
            8.1,
            "WEEK 10 (T)",
            70,
            "TREATMENT",
            "2013-06-09",
            "2013-06-09",
            72,
            72,
            ""
          ],
          [
            298,
            "CDISCPILOT01",
            "SV",
            "01-701-1234",
            9,
            "WEEK 12",
            84,
            "TREATMENT",
            "2013-07-07",
            "2013-07-07",
            100,
            100,
            ""
          ],
          [
            299,
            "CDISCPILOT01",
            "SV",
            "01-701-1234",
            10,
            "WEEK 16",
            112,
            "TREATMENT",
            "2013-07-27",
            "2013-07-27",
            120,
            120,
            ""
          ],
          [
            300,
            "CDISCPILOT01",
            "SV",
            "01-701-1234",
            10.1,
            "WEEK 18 (T)",
            126,
            "TREATMENT",
            "2013-08-10",
            "2013-08-10",
            134,
            134,
            ""
          ],
          [
            301,
            "CDISCPILOT01",
            "SV",
            "01-701-1234",
            11,
            "WEEK 20",
            140,
            "TREATMENT",
            "2013-08-18",
            "2013-08-18",
            142,
            142,
            ""
          ],
          [
            302,
            "CDISCPILOT01",
            "SV",
            "01-701-1234",
            11.1,
            "WEEK 22 (T)",
            154,
            "TREATMENT",
            "2013-09-01",
            "2013-09-01",
            156,
            156,
            ""
          ],
          [
            303,
            "CDISCPILOT01",
            "SV",
            "01-701-1234",
            12,
            "WEEK 24",
            168,
            "TREATMENT",
            "2013-09-10",
            "2013-09-10",
            165,
            165,
            ""
          ],
          [
            304,
            "CDISCPILOT01",
            "SV",
            "01-701-1234",
            13,
            "WEEK 26",
            182,
            "TREATMENT",
            "2013-09-22",
            "2013-09-22",
            177,
            177,
            ""
          ],
          [
            305,
            "CDISCPILOT01",
            "SV",
            "01-701-1239",
            1,
            "SCREENING 1",
            -7,
            "SCREENING",
            "2013-12-28",
            "2013-12-28",
            -14,
            -14,
            ""
          ],
          [
            306,
            "CDISCPILOT01",
            "SV",
            "01-701-1239",
            1.1,
            "UNSCHEDULED 1.1",
            null,
            "SCREENING",
            "2014-01-06",
            "2014-01-06",
            -5,
            -5,
            "Unplanned visit to complete unscheduled assessments"
          ],
          [
            307,
            "CDISCPILOT01",
            "SV",
            "01-701-1239",
            2,
            "SCREENING 2",
            -1,
            "SCREENING",
            "2014-01-09",
            "2014-01-09",
            -2,
            -2,
            ""
          ],
          [
            308,
            "CDISCPILOT01",
            "SV",
            "01-701-1239",
            3,
            "BASELINE",
            1,
            "TREATMENT",
            "2014-01-11",
            "2014-01-11",
            1,
            1,
            ""
          ],
          [
            309,
            "CDISCPILOT01",
            "SV",
            "01-701-1239",
            3.5,
            "AMBUL ECG PLACEMENT",
            13,
            "TREATMENT",
            "2014-01-24",
            "2014-01-24",
            14,
            14,
            ""
          ],
          [
            310,
            "CDISCPILOT01",
            "SV",
            "01-701-1239",
            4,
            "WEEK 2",
            14,
            "TREATMENT",
            "2014-01-25",
            "2014-01-25",
            15,
            15,
            ""
          ],
          [
            311,
            "CDISCPILOT01",
            "SV",
            "01-701-1239",
            5,
            "WEEK 4",
            28,
            "TREATMENT",
            "2014-02-08",
            "2014-02-08",
            29,
            29,
            ""
          ],
          [
            312,
            "CDISCPILOT01",
            "SV",
            "01-701-1239",
            6,
            "AMBUL ECG REMOVAL",
            30,
            "TREATMENT",
            "2014-02-10",
            "2014-02-10",
            31,
            31,
            ""
          ],
          [
            313,
            "CDISCPILOT01",
            "SV",
            "01-701-1239",
            7,
            "WEEK 6",
            42,
            "TREATMENT",
            "2014-02-19",
            "2014-02-19",
            40,
            40,
            ""
          ],
          [
            314,
            "CDISCPILOT01",
            "SV",
            "01-701-1239",
            8,
            "WEEK 8",
            56,
            "TREATMENT",
            "2014-03-06",
            "2014-03-06",
            55,
            55,
            ""
          ],
          [
            315,
            "CDISCPILOT01",
            "SV",
            "01-701-1239",
            8.1,
            "WEEK 10 (T)",
            70,
            "TREATMENT",
            "2014-03-19",
            "2014-03-19",
            68,
            68,
            ""
          ],
          [
            316,
            "CDISCPILOT01",
            "SV",
            "01-701-1239",
            9,
            "WEEK 12",
            84,
            "TREATMENT",
            "2014-04-02",
            "2014-04-02",
            82,
            82,
            ""
          ],
          [
            317,
            "CDISCPILOT01",
            "SV",
            "01-701-1239",
            9.1,
            "WEEK 14 (T)",
            98,
            "TREATMENT",
            "2014-04-16",
            "2014-04-16",
            96,
            96,
            ""
          ],
          [
            318,
            "CDISCPILOT01",
            "SV",
            "01-701-1239",
            10,
            "WEEK 16",
            112,
            "TREATMENT",
            "2014-05-02",
            "2014-05-02",
            112,
            112,
            ""
          ],
          [
            319,
            "CDISCPILOT01",
            "SV",
            "01-701-1239",
            10.1,
            "WEEK 18 (T)",
            126,
            "TREATMENT",
            "2014-05-14",
            "2014-05-14",
            124,
            124,
            ""
          ],
          [
            320,
            "CDISCPILOT01",
            "SV",
            "01-701-1239",
            11,
            "WEEK 20",
            140,
            "TREATMENT",
            "2014-05-28",
            "2014-05-28",
            138,
            138,
            ""
          ],
          [
            321,
            "CDISCPILOT01",
            "SV",
            "01-701-1239",
            11.1,
            "WEEK 22 (T)",
            154,
            "TREATMENT",
            "2014-06-11",
            "2014-06-11",
            152,
            152,
            ""
          ],
          [
            322,
            "CDISCPILOT01",
            "SV",
            "01-701-1239",
            12,
            "WEEK 24",
            168,
            "TREATMENT",
            "2014-06-27",
            "2014-06-27",
            168,
            168,
            ""
          ],
          [
            323,
            "CDISCPILOT01",
            "SV",
            "01-701-1239",
            13,
            "WEEK 26",
            182,
            "TREATMENT",
            "2014-07-11",
            "2014-07-11",
            182,
            182,
            ""
          ],
          [
            324,
            "CDISCPILOT01",
            "SV",
            "01-701-1240",
            1,
            "SCREENING 1",
            -7,
            "SCREENING",
            "2013-09-22",
            "2013-09-22",
            null,
            null,
            ""
          ],
          [
            325,
            "CDISCPILOT01",
            "SV",
            "01-701-1275",
            1,
            "SCREENING 1",
            -7,
            "SCREENING",
            "2014-01-25",
            "2014-01-25",
            -13,
            -13,
            ""
          ],
          [
            326,
            "CDISCPILOT01",
            "SV",
            "01-701-1275",
            2,
            "SCREENING 2",
            -1,
            "SCREENING",
            "2014-02-05",
            "2014-02-05",
            -2,
            -2,
            ""
          ],
          [
            327,
            "CDISCPILOT01",
            "SV",
            "01-701-1275",
            3,
            "BASELINE",
            1,
            "TREATMENT",
            "2014-02-07",
            "2014-02-07",
            1,
            1,
            ""
          ],
          [
            328,
            "CDISCPILOT01",
            "SV",
            "01-701-1275",
            3.5,
            "AMBUL ECG PLACEMENT",
            13,
            "TREATMENT",
            "2014-02-21",
            "2014-02-21",
            15,
            15,
            ""
          ],
          [
            329,
            "CDISCPILOT01",
            "SV",
            "01-701-1275",
            4,
            "WEEK 2",
            14,
            "TREATMENT",
            "2014-02-22",
            "2014-02-22",
            16,
            16,
            ""
          ],
          [
            330,
            "CDISCPILOT01",
            "SV",
            "01-701-1275",
            5,
            "WEEK 4",
            28,
            "TREATMENT",
            "2014-03-07",
            "2014-03-07",
            29,
            29,
            ""
          ],
          [
            331,
            "CDISCPILOT01",
            "SV",
            "01-701-1275",
            6,
            "AMBUL ECG REMOVAL",
            30,
            "TREATMENT",
            "2014-03-08",
            "2014-03-08",
            30,
            30,
            ""
          ],
          [
            332,
            "CDISCPILOT01",
            "SV",
            "01-701-1275",
            7,
            "WEEK 6",
            42,
            "TREATMENT",
            "2014-03-22",
            "2014-03-22",
            44,
            44,
            ""
          ],
          [
            333,
            "CDISCPILOT01",
            "SV",
            "01-701-1275",
            8,
            "WEEK 8",
            56,
            "TREATMENT",
            "2014-04-05",
            "2014-04-05",
            58,
            58,
            ""
          ],
          [
            334,
            "CDISCPILOT01",
            "SV",
            "01-701-1275",
            8.1,
            "WEEK 10 (T)",
            70,
            "TREATMENT",
            "2014-04-19",
            "2014-04-19",
            72,
            72,
            ""
          ],
          [
            335,
            "CDISCPILOT01",
            "SV",
            "01-701-1275",
            9,
            "WEEK 12",
            84,
            "TREATMENT",
            "2014-05-03",
            "2014-05-03",
            86,
            86,
            ""
          ],
          [
            336,
            "CDISCPILOT01",
            "SV",
            "01-701-1275",
            9.1,
            "WEEK 14 (T)",
            98,
            "TREATMENT",
            "2014-05-17",
            "2014-05-17",
            100,
            100,
            ""
          ],
          [
            337,
            "CDISCPILOT01",
            "SV",
            "01-701-1275",
            10,
            "WEEK 16",
            112,
            "TREATMENT",
            "2014-06-14",
            "2014-06-14",
            128,
            128,
            ""
          ],
          [
            338,
            "CDISCPILOT01",
            "SV",
            "01-701-1287",
            1,
            "SCREENING 1",
            -7,
            "SCREENING",
            "2014-01-17",
            "2014-01-17",
            -8,
            -8,
            ""
          ],
          [
            339,
            "CDISCPILOT01",
            "SV",
            "01-701-1287",
            2,
            "SCREENING 2",
            -1,
            "SCREENING",
            "2014-01-23",
            "2014-01-23",
            -2,
            -2,
            ""
          ],
          [
            340,
            "CDISCPILOT01",
            "SV",
            "01-701-1287",
            3,
            "BASELINE",
            1,
            "TREATMENT",
            "2014-01-25",
            "2014-01-25",
            1,
            1,
            ""
          ],
          [
            341,
            "CDISCPILOT01",
            "SV",
            "01-701-1287",
            4,
            "WEEK 2",
            14,
            "TREATMENT",
            "2014-02-11",
            "2014-02-11",
            18,
            18,
            ""
          ],
          [
            342,
            "CDISCPILOT01",
            "SV",
            "01-701-1287",
            5,
            "WEEK 4",
            28,
            "TREATMENT",
            "2014-02-20",
            "2014-02-20",
            27,
            27,
            ""
          ],
          [
            343,
            "CDISCPILOT01",
            "SV",
            "01-701-1287",
            6,
            "AMBUL ECG REMOVAL",
            30,
            "TREATMENT",
            "2014-02-22",
            "2014-02-22",
            29,
            29,
            ""
          ],
          [
            344,
            "CDISCPILOT01",
            "SV",
            "01-701-1287",
            7,
            "WEEK 6",
            42,
            "TREATMENT",
            "2014-03-06",
            "2014-03-06",
            41,
            41,
            ""
          ],
          [
            345,
            "CDISCPILOT01",
            "SV",
            "01-701-1287",
            8,
            "WEEK 8",
            56,
            "TREATMENT",
            "2014-03-21",
            "2014-03-21",
            56,
            56,
            ""
          ],
          [
            346,
            "CDISCPILOT01",
            "SV",
            "01-701-1287",
            8.1,
            "WEEK 10 (T)",
            70,
            "TREATMENT",
            "2014-04-03",
            "2014-04-03",
            69,
            69,
            ""
          ],
          [
            347,
            "CDISCPILOT01",
            "SV",
            "01-701-1287",
            9,
            "WEEK 12",
            84,
            "TREATMENT",
            "2014-04-17",
            "2014-04-17",
            83,
            83,
            ""
          ],
          [
            348,
            "CDISCPILOT01",
            "SV",
            "01-701-1287",
            9.1,
            "WEEK 14 (T)",
            98,
            "TREATMENT",
            "2014-05-01",
            "2014-05-01",
            97,
            97,
            ""
          ],
          [
            349,
            "CDISCPILOT01",
            "SV",
            "01-701-1287",
            10,
            "WEEK 16",
            112,
            "TREATMENT",
            "2014-05-15",
            "2014-05-15",
            111,
            111,
            ""
          ],
          [
            350,
            "CDISCPILOT01",
            "SV",
            "01-701-1287",
            10.1,
            "WEEK 18 (T)",
            126,
            "TREATMENT",
            "2014-05-29",
            "2014-05-29",
            125,
            125,
            ""
          ],
          [
            351,
            "CDISCPILOT01",
            "SV",
            "01-701-1287",
            11,
            "WEEK 20",
            140,
            "TREATMENT",
            "2014-06-12",
            "2014-06-12",
            139,
            139,
            ""
          ],
          [
            352,
            "CDISCPILOT01",
            "SV",
            "01-701-1287",
            11.1,
            "WEEK 22 (T)",
            154,
            "TREATMENT",
            "2014-06-26",
            "2014-06-26",
            153,
            153,
            ""
          ],
          [
            353,
            "CDISCPILOT01",
            "SV",
            "01-701-1287",
            12,
            "WEEK 24",
            168,
            "TREATMENT",
            "2014-07-12",
            "2014-07-12",
            169,
            169,
            ""
          ],
          [
            354,
            "CDISCPILOT01",
            "SV",
            "01-701-1287",
            13,
            "WEEK 26",
            182,
            "TREATMENT",
            "2014-07-26",
            "2014-07-26",
            183,
            183,
            ""
          ],
          [
            355,
            "CDISCPILOT01",
            "SV",
            "01-701-1294",
            1,
            "SCREENING 1",
            -7,
            "SCREENING",
            "2013-03-17",
            "2013-03-17",
            -7,
            -7,
            ""
          ],
          [
            356,
            "CDISCPILOT01",
            "SV",
            "01-701-1294",
            2,
            "SCREENING 2",
            -1,
            "SCREENING",
            "2013-03-22",
            "2013-03-22",
            -2,
            -2,
            ""
          ],
          [
            357,
            "CDISCPILOT01",
            "SV",
            "01-701-1294",
            3,
            "BASELINE",
            1,
            "TREATMENT",
            "2013-03-24",
            "2013-03-24",
            1,
            1,
            ""
          ],
          [
            358,
            "CDISCPILOT01",
            "SV",
            "01-701-1294",
            3.5,
            "AMBUL ECG PLACEMENT",
            13,
            "TREATMENT",
            "2013-04-09",
            "2013-04-09",
            17,
            17,
            ""
          ],
          [
            359,
            "CDISCPILOT01",
            "SV",
            "01-701-1294",
            4,
            "WEEK 2",
            14,
            "TREATMENT",
            "2013-04-10",
            "2013-04-10",
            18,
            18,
            ""
          ],
          [
            360,
            "CDISCPILOT01",
            "SV",
            "01-701-1294",
            5,
            "WEEK 4",
            28,
            "TREATMENT",
            "2013-04-24",
            "2013-04-24",
            32,
            32,
            ""
          ],
          [
            361,
            "CDISCPILOT01",
            "SV",
            "01-701-1294",
            6,
            "AMBUL ECG REMOVAL",
            30,
            "TREATMENT",
            "2013-04-26",
            "2013-04-26",
            34,
            34,
            ""
          ],
          [
            362,
            "CDISCPILOT01",
            "SV",
            "01-701-1294",
            7,
            "WEEK 6",
            42,
            "TREATMENT",
            "2013-05-08",
            "2013-05-08",
            46,
            46,
            ""
          ],
          [
            363,
            "CDISCPILOT01",
            "SV",
            "01-701-1294",
            8,
            "WEEK 8",
            56,
            "TREATMENT",
            "2013-05-22",
            "2013-05-22",
            60,
            60,
            ""
          ],
          [
            364,
            "CDISCPILOT01",
            "SV",
            "01-701-1294",
            8.1,
            "WEEK 10 (T)",
            70,
            "TREATMENT",
            "2013-06-05",
            "2013-06-05",
            74,
            74,
            ""
          ],
          [
            365,
            "CDISCPILOT01",
            "SV",
            "01-701-1294",
            9,
            "WEEK 12",
            84,
            "TREATMENT",
            "2013-06-14",
            "2013-06-14",
            83,
            83,
            ""
          ],
          [
            366,
            "CDISCPILOT01",
            "SV",
            "01-701-1294",
            101,
            "AE FOLLOW-UP",
            null,
            "FOLLOW-UP",
            "2013-08-23",
            "2013-08-23",
            153,
            153,
            ""
          ],
          [
            367,
            "CDISCPILOT01",
            "SV",
            "01-701-1294",
            201,
            "RETRIEVAL",
            168,
            "FOLLOW-UP",
            "2013-10-08",
            "2013-10-08",
            199,
            199,
            ""
          ],
          [
            368,
            "CDISCPILOT01",
            "SV",
            "01-701-1302",
            1,
            "SCREENING 1",
            -7,
            "SCREENING",
            "2013-08-20",
            "2013-08-20",
            -9,
            -9,
            ""
          ],
          [
            369,
            "CDISCPILOT01",
            "SV",
            "01-701-1302",
            2,
            "SCREENING 2",
            -1,
            "SCREENING",
            "2013-08-27",
            "2013-08-27",
            -2,
            -2,
            ""
          ],
          [
            370,
            "CDISCPILOT01",
            "SV",
            "01-701-1302",
            3,
            "BASELINE",
            1,
            "TREATMENT",
            "2013-08-29",
            "2013-08-29",
            1,
            1,
            ""
          ],
          [
            371,
            "CDISCPILOT01",
            "SV",
            "01-701-1302",
            3.5,
            "AMBUL ECG PLACEMENT",
            13,
            "TREATMENT",
            "2013-09-09",
            "2013-09-09",
            12,
            12,
            ""
          ],
          [
            372,
            "CDISCPILOT01",
            "SV",
            "01-701-1302",
            4,
            "WEEK 2",
            14,
            "TREATMENT",
            "2013-09-15",
            "2013-09-15",
            18,
            18,
            ""
          ],
          [
            373,
            "CDISCPILOT01",
            "SV",
            "01-701-1302",
            5,
            "WEEK 4",
            28,
            "TREATMENT",
            "2013-09-24",
            "2013-09-24",
            27,
            27,
            ""
          ],
          [
            374,
            "CDISCPILOT01",
            "SV",
            "01-701-1302",
            6,
            "AMBUL ECG REMOVAL",
            30,
            "TREATMENT",
            "2013-09-26",
            "2013-09-26",
            29,
            29,
            ""
          ],
          [
            375,
            "CDISCPILOT01",
            "SV",
            "01-701-1302",
            7,
            "WEEK 6",
            42,
            "TREATMENT",
            "2013-10-08",
            "2013-10-08",
            41,
            41,
            ""
          ],
          [
            376,
            "CDISCPILOT01",
            "SV",
            "01-701-1302",
            8,
            "WEEK 8",
            56,
            "TREATMENT",
            "2013-10-22",
            "2013-10-22",
            55,
            55,
            ""
          ],
          [
            377,
            "CDISCPILOT01",
            "SV",
            "01-701-1302",
            9,
            "WEEK 12",
            84,
            "TREATMENT",
            "2013-11-05",
            "2013-11-05",
            69,
            69,
            ""
          ],
          [
            378,
            "CDISCPILOT01",
            "SV",
            "01-701-1302",
            101,
            "AE FOLLOW-UP",
            null,
            "FOLLOW-UP",
            "2013-12-16",
            "2013-12-16",
            110,
            110,
            ""
          ],
          [
            379,
            "CDISCPILOT01",
            "SV",
            "01-701-1302",
            201,
            "RETRIEVAL",
            168,
            "FOLLOW-UP",
            "2014-02-13",
            "2014-02-13",
            169,
            169,
            ""
          ],
          [
            380,
            "CDISCPILOT01",
            "SV",
            "01-701-1307",
            1,
            "SCREENING 1",
            -7,
            "SCREENING",
            "2013-12-08",
            "2013-12-08",
            null,
            null,
            ""
          ],
          [
            381,
            "CDISCPILOT01",
            "SV",
            "01-701-1317",
            1,
            "SCREENING 1",
            -7,
            "SCREENING",
            "2014-05-10",
            "2014-05-10",
            -12,
            -12,
            ""
          ],
          [
            382,
            "CDISCPILOT01",
            "SV",
            "01-701-1317",
            1.1,
            "UNSCHEDULED 1.1",
            null,
            "SCREENING",
            "2014-05-10",
            "2014-05-10",
            -12,
            -12,
            "Unplanned visit to complete unscheduled assessments"
          ],
          [
            383,
            "CDISCPILOT01",
            "SV",
            "01-701-1317",
            2,
            "SCREENING 2",
            -1,
            "SCREENING",
            "2014-05-20",
            "2014-05-20",
            -2,
            -2,
            ""
          ],
          [
            384,
            "CDISCPILOT01",
            "SV",
            "01-701-1317",
            3,
            "BASELINE",
            1,
            "TREATMENT",
            "2014-05-22",
            "2014-05-22",
            1,
            1,
            ""
          ],
          [
            385,
            "CDISCPILOT01",
            "SV",
            "01-701-1317",
            3.5,
            "AMBUL ECG PLACEMENT",
            13,
            "TREATMENT",
            "2014-06-04",
            "2014-06-04",
            14,
            14,
            ""
          ],
          [
            386,
            "CDISCPILOT01",
            "SV",
            "01-701-1317",
            4,
            "WEEK 2",
            14,
            "TREATMENT",
            "2014-06-05",
            "2014-06-05",
            15,
            15,
            ""
          ],
          [
            387,
            "CDISCPILOT01",
            "SV",
            "01-701-1317",
            5,
            "WEEK 4",
            28,
            "TREATMENT",
            "2014-06-19",
            "2014-06-19",
            29,
            29,
            ""
          ],
          [
            388,
            "CDISCPILOT01",
            "SV",
            "01-701-1317",
            6,
            "AMBUL ECG REMOVAL",
            30,
            "TREATMENT",
            "2014-06-21",
            "2014-06-21",
            31,
            31,
            ""
          ],
          [
            389,
            "CDISCPILOT01",
            "SV",
            "01-701-1317",
            7,
            "WEEK 6",
            42,
            "TREATMENT",
            "2014-07-03",
            "2014-07-03",
            43,
            43,
            ""
          ],
          [
            390,
            "CDISCPILOT01",
            "SV",
            "01-701-1317",
            8,
            "WEEK 8",
            56,
            "TREATMENT",
            "2014-07-22",
            "2014-07-22",
            62,
            62,
            ""
          ],
          [
            391,
            "CDISCPILOT01",
            "SV",
            "01-701-1317",
            8.1,
            "WEEK 10 (T)",
            70,
            "TREATMENT",
            "2014-07-30",
            "2014-07-30",
            70,
            70,
            ""
          ],
          [
            392,
            "CDISCPILOT01",
            "SV",
            "01-701-1317",
            9,
            "WEEK 12",
            84,
            "TREATMENT",
            "2014-08-15",
            "2014-08-15",
            86,
            86,
            ""
          ],
          [
            393,
            "CDISCPILOT01",
            "SV",
            "01-701-1317",
            9.1,
            "WEEK 14 (T)",
            98,
            "TREATMENT",
            "2014-08-28",
            "2014-08-28",
            99,
            99,
            ""
          ],
          [
            394,
            "CDISCPILOT01",
            "SV",
            "01-701-1317",
            10,
            "WEEK 16",
            112,
            "TREATMENT",
            "2014-09-11",
            "2014-09-11",
            113,
            113,
            ""
          ],
          [
            395,
            "CDISCPILOT01",
            "SV",
            "01-701-1317",
            10.1,
            "WEEK 18 (T)",
            126,
            "TREATMENT",
            "2014-09-25",
            "2014-09-25",
            127,
            127,
            ""
          ],
          [
            396,
            "CDISCPILOT01",
            "SV",
            "01-701-1317",
            11,
            "WEEK 20",
            140,
            "TREATMENT",
            "2014-10-09",
            "2014-10-09",
            141,
            141,
            ""
          ],
          [
            397,
            "CDISCPILOT01",
            "SV",
            "01-701-1317",
            11.1,
            "WEEK 22 (T)",
            154,
            "TREATMENT",
            "2014-10-23",
            "2014-10-23",
            155,
            155,
            ""
          ],
          [
            398,
            "CDISCPILOT01",
            "SV",
            "01-701-1317",
            12,
            "WEEK 24",
            168,
            "TREATMENT",
            "2014-11-06",
            "2014-11-06",
            169,
            169,
            ""
          ],
          [
            399,
            "CDISCPILOT01",
            "SV",
            "01-701-1317",
            13,
            "WEEK 26",
            182,
            "TREATMENT",
            "2014-11-20",
            "2014-11-20",
            183,
            183,
            ""
          ],
          [
            400,
            "CDISCPILOT01",
            "SV",
            "01-701-1324",
            1,
            "SCREENING 1",
            -7,
            "SCREENING",
            "2012-09-16",
            "2012-09-16",
            -16,
            -16,
            ""
          ],
          [
            401,
            "CDISCPILOT01",
            "SV",
            "01-701-1324",
            1.1,
            "UNSCHEDULED 1.1",
            null,
            "SCREENING",
            "2012-09-25",
            "2012-09-25",
            -7,
            -7,
            "Unplanned visit to complete unscheduled assessments"
          ],
          [
            402,
            "CDISCPILOT01",
            "SV",
            "01-701-1324",
            2,
            "SCREENING 2",
            -1,
            "SCREENING",
            "2012-09-25",
            "2012-09-25",
            -7,
            -7,
            ""
          ],
          [
            403,
            "CDISCPILOT01",
            "SV",
            "01-701-1324",
            3,
            "BASELINE",
            1,
            "TREATMENT",
            "2012-10-02",
            "2012-10-02",
            1,
            1,
            ""
          ],
          [
            404,
            "CDISCPILOT01",
            "SV",
            "01-701-1324",
            3.5,
            "AMBUL ECG PLACEMENT",
            13,
            "TREATMENT",
            "2012-10-15",
            "2012-10-15",
            14,
            14,
            ""
          ],
          [
            405,
            "CDISCPILOT01",
            "SV",
            "01-701-1324",
            4,
            "WEEK 2",
            14,
            "TREATMENT",
            "2012-10-16",
            "2012-10-16",
            15,
            15,
            ""
          ],
          [
            406,
            "CDISCPILOT01",
            "SV",
            "01-701-1324",
            4.1,
            "UNSCHEDULED 4.1",
            null,
            "TREATMENT",
            "2012-10-25",
            "2012-10-25",
            24,
            24,
            "Unplanned visit to complete unscheduled assessments"
          ],
          [
            407,
            "CDISCPILOT01",
            "SV",
            "01-701-1324",
            5,
            "WEEK 4",
            28,
            "TREATMENT",
            "2012-10-30",
            "2012-10-30",
            29,
            29,
            ""
          ],
          [
            408,
            "CDISCPILOT01",
            "SV",
            "01-701-1324",
            6,
            "AMBUL ECG REMOVAL",
            30,
            "TREATMENT",
            "2012-11-01",
            "2012-11-01",
            31,
            31,
            ""
          ],
          [
            409,
            "CDISCPILOT01",
            "SV",
            "01-701-1324",
            7,
            "WEEK 6",
            42,
            "TREATMENT",
            "2012-11-13",
            "2012-11-13",
            43,
            43,
            ""
          ],
          [
            410,
            "CDISCPILOT01",
            "SV",
            "01-701-1324",
            8,
            "WEEK 8",
            56,
            "TREATMENT",
            "2012-11-25",
            "2012-11-25",
            55,
            55,
            ""
          ],
          [
            411,
            "CDISCPILOT01",
            "SV",
            "01-701-1324",
            8.1,
            "WEEK 10 (T)",
            70,
            "TREATMENT",
            "2012-12-11",
            "2012-12-11",
            71,
            71,
            ""
          ],
          [
            412,
            "CDISCPILOT01",
            "SV",
            "01-701-1324",
            9,
            "WEEK 12",
            84,
            "TREATMENT",
            "2012-12-25",
            "2012-12-25",
            85,
            85,
            ""
          ],
          [
            413,
            "CDISCPILOT01",
            "SV",
            "01-701-1324",
            9.1,
            "WEEK 14 (T)",
            98,
            "TREATMENT",
            "2013-01-08",
            "2013-01-08",
            99,
            99,
            ""
          ],
          [
            414,
            "CDISCPILOT01",
            "SV",
            "01-701-1324",
            10,
            "WEEK 16",
            112,
            "TREATMENT",
            "2013-01-22",
            "2013-01-22",
            113,
            113,
            ""
          ],
          [
            415,
            "CDISCPILOT01",
            "SV",
            "01-701-1324",
            10.1,
            "WEEK 18 (T)",
            126,
            "TREATMENT",
            "2013-02-05",
            "2013-02-05",
            127,
            127,
            ""
          ],
          [
            416,
            "CDISCPILOT01",
            "SV",
            "01-701-1324",
            11,
            "WEEK 20",
            140,
            "TREATMENT",
            "2013-02-19",
            "2013-02-19",
            141,
            141,
            ""
          ],
          [
            417,
            "CDISCPILOT01",
            "SV",
            "01-701-1324",
            11.1,
            "WEEK 22 (T)",
            154,
            "TREATMENT",
            "2013-03-05",
            "2013-03-05",
            155,
            155,
            ""
          ],
          [
            418,
            "CDISCPILOT01",
            "SV",
            "01-701-1324",
            12,
            "WEEK 24",
            168,
            "TREATMENT",
            "2013-03-19",
            "2013-03-19",
            169,
            169,
            ""
          ],
          [
            419,
            "CDISCPILOT01",
            "SV",
            "01-701-1324",
            13,
            "WEEK 26",
            182,
            "TREATMENT",
            "2013-04-02",
            "2013-04-02",
            183,
            183,
            ""
          ],
          [
            420,
            "CDISCPILOT01",
            "SV",
            "01-701-1341",
            1,
            "SCREENING 1",
            -7,
            "SCREENING",
            "2012-12-22",
            "2012-12-22",
            -14,
            -14,
            ""
          ],
          [
            421,
            "CDISCPILOT01",
            "SV",
            "01-701-1341",
            1.1,
            "UNSCHEDULED 1.1",
            null,
            "SCREENING",
            "2012-12-26",
            "2012-12-26",
            -10,
            -10,
            "Unplanned visit to complete unscheduled assessments"
          ],
          [
            422,
            "CDISCPILOT01",
            "SV",
            "01-701-1341",
            2,
            "SCREENING 2",
            -1,
            "SCREENING",
            "2013-01-03",
            "2013-01-03",
            -2,
            -2,
            ""
          ],
          [
            423,
            "CDISCPILOT01",
            "SV",
            "01-701-1341",
            3,
            "BASELINE",
            1,
            "TREATMENT",
            "2013-01-05",
            "2013-01-05",
            1,
            1,
            ""
          ],
          [
            424,
            "CDISCPILOT01",
            "SV",
            "01-701-1341",
            3.5,
            "AMBUL ECG PLACEMENT",
            13,
            "TREATMENT",
            "2013-01-17",
            "2013-01-17",
            13,
            13,
            ""
          ],
          [
            425,
            "CDISCPILOT01",
            "SV",
            "01-701-1341",
            4,
            "WEEK 2",
            14,
            "TREATMENT",
            "2013-01-18",
            "2013-01-18",
            14,
            14,
            ""
          ],
          [
            426,
            "CDISCPILOT01",
            "SV",
            "01-701-1341",
            5,
            "WEEK 4",
            28,
            "TREATMENT",
            "2013-02-07",
            "2013-02-07",
            34,
            34,
            ""
          ],
          [
            427,
            "CDISCPILOT01",
            "SV",
            "01-701-1341",
            101,
            "AE FOLLOW-UP",
            null,
            "FOLLOW-UP",
            "2013-02-21",
            "2013-02-21",
            48,
            48,
            ""
          ],
          [
            428,
            "CDISCPILOT01",
            "SV",
            "01-701-1345",
            1,
            "SCREENING 1",
            -7,
            "SCREENING",
            "2013-10-01",
            "2013-10-01",
            -7,
            -7,
            ""
          ],
          [
            429,
            "CDISCPILOT01",
            "SV",
            "01-701-1345",
            2,
            "SCREENING 2",
            -1,
            "SCREENING",
            "2013-10-06",
            "2013-10-06",
            -2,
            -2,
            ""
          ],
          [
            430,
            "CDISCPILOT01",
            "SV",
            "01-701-1345",
            3,
            "BASELINE",
            1,
            "TREATMENT",
            "2013-10-08",
            "2013-10-08",
            1,
            1,
            ""
          ],
          [
            431,
            "CDISCPILOT01",
            "SV",
            "01-701-1345",
            3.5,
            "AMBUL ECG PLACEMENT",
            13,
            "TREATMENT",
            "2013-10-23",
            "2013-10-23",
            16,
            16,
            ""
          ],
          [
            432,
            "CDISCPILOT01",
            "SV",
            "01-701-1345",
            4,
            "WEEK 2",
            14,
            "TREATMENT",
            "2013-10-24",
            "2013-10-24",
            17,
            17,
            ""
          ],
          [
            433,
            "CDISCPILOT01",
            "SV",
            "01-701-1345",
            5,
            "WEEK 4",
            28,
            "TREATMENT",
            "2013-11-08",
            "2013-11-08",
            32,
            32,
            ""
          ],
          [
            434,
            "CDISCPILOT01",
            "SV",
            "01-701-1345",
            6,
            "AMBUL ECG REMOVAL",
            30,
            "TREATMENT",
            "2013-11-10",
            "2013-11-10",
            34,
            34,
            ""
          ],
          [
            435,
            "CDISCPILOT01",
            "SV",
            "01-701-1345",
            7,
            "WEEK 6",
            42,
            "TREATMENT",
            "2013-11-19",
            "2013-11-19",
            43,
            43,
            ""
          ],
          [
            436,
            "CDISCPILOT01",
            "SV",
            "01-701-1345",
            8,
            "WEEK 8",
            56,
            "TREATMENT",
            "2013-12-03",
            "2013-12-03",
            57,
            57,
            ""
          ],
          [
            437,
            "CDISCPILOT01",
            "SV",
            "01-701-1345",
            8.1,
            "WEEK 10 (T)",
            70,
            "TREATMENT",
            "2013-12-18",
            "2013-12-18",
            72,
            72,
            ""
          ],
          [
            438,
            "CDISCPILOT01",
            "SV",
            "01-701-1345",
            9,
            "WEEK 12",
            84,
            "TREATMENT",
            "2013-12-31",
            "2013-12-31",
            85,
            85,
            ""
          ],
          [
            439,
            "CDISCPILOT01",
            "SV",
            "01-701-1345",
            9.1,
            "WEEK 14 (T)",
            98,
            "TREATMENT",
            "2014-01-14",
            "2014-01-14",
            99,
            99,
            ""
          ],
          [
            440,
            "CDISCPILOT01",
            "SV",
            "01-701-1345",
            10,
            "WEEK 16",
            112,
            "TREATMENT",
            "2014-01-27",
            "2014-01-27",
            112,
            112,
            ""
          ],
          [
            441,
            "CDISCPILOT01",
            "SV",
            "01-701-1345",
            10.1,
            "WEEK 18 (T)",
            126,
            "TREATMENT",
            "2014-02-11",
            "2014-02-11",
            127,
            127,
            ""
          ],
          [
            442,
            "CDISCPILOT01",
            "SV",
            "01-701-1345",
            11,
            "WEEK 20",
            140,
            "TREATMENT",
            "2014-02-25",
            "2014-02-25",
            141,
            141,
            ""
          ],
          [
            443,
            "CDISCPILOT01",
            "SV",
            "01-701-1345",
            11.1,
            "WEEK 22 (T)",
            154,
            "TREATMENT",
            "2014-03-11",
            "2014-03-11",
            155,
            155,
            ""
          ],
          [
            444,
            "CDISCPILOT01",
            "SV",
            "01-701-1345",
            12,
            "WEEK 24",
            168,
            "TREATMENT",
            "2014-03-18",
            "2014-03-18",
            162,
            162,
            ""
          ],
          [
            445,
            "CDISCPILOT01",
            "SV",
            "01-701-1356",
            1,
            "SCREENING 1",
            -7,
            "SCREENING",
            "2014-04-01",
            "2014-04-01",
            null,
            null,
            ""
          ],
          [
            446,
            "CDISCPILOT01",
            "SV",
            "01-701-1360",
            1,
            "SCREENING 1",
            -7,
            "SCREENING",
            "2013-07-24",
            "2013-07-24",
            -7,
            -7,
            ""
          ],
          [
            447,
            "CDISCPILOT01",
            "SV",
            "01-701-1360",
            2,
            "SCREENING 2",
            -1,
            "SCREENING",
            "2013-07-29",
            "2013-07-29",
            -2,
            -2,
            ""
          ],
          [
            448,
            "CDISCPILOT01",
            "SV",
            "01-701-1360",
            3,
            "BASELINE",
            1,
            "TREATMENT",
            "2013-07-31",
            "2013-07-31",
            1,
            1,
            ""
          ],
          [
            449,
            "CDISCPILOT01",
            "SV",
            "01-701-1360",
            4,
            "WEEK 2",
            14,
            "TREATMENT",
            "2013-08-14",
            "2013-08-14",
            15,
            15,
            ""
          ],
          [
            450,
            "CDISCPILOT01",
            "SV",
            "01-701-1360",
            101,
            "AE FOLLOW-UP",
            null,
            "FOLLOW-UP",
            "2013-09-09",
            "2013-09-09",
            41,
            41,
            ""
          ],
          [
            451,
            "CDISCPILOT01",
            "SV",
            "01-701-1360",
            201,
            "RETRIEVAL",
            168,
            "FOLLOW-UP",
            "2014-02-11",
            "2014-02-11",
            196,
            196,
            ""
          ],
          [
            452,
            "CDISCPILOT01",
            "SV",
            "01-701-1363",
            1,
            "SCREENING 1",
            -7,
            "SCREENING",
            "2013-05-20",
            "2013-05-20",
            -10,
            -10,
            ""
          ],
          [
            453,
            "CDISCPILOT01",
            "SV",
            "01-701-1363",
            2,
            "SCREENING 2",
            -1,
            "SCREENING",
            "2013-05-28",
            "2013-05-28",
            -2,
            -2,
            ""
          ],
          [
            454,
            "CDISCPILOT01",
            "SV",
            "01-701-1363",
            3,
            "BASELINE",
            1,
            "TREATMENT",
            "2013-05-30",
            "2013-05-30",
            1,
            1,
            ""
          ],
          [
            455,
            "CDISCPILOT01",
            "SV",
            "01-701-1363",
            3.5,
            "AMBUL ECG PLACEMENT",
            13,
            "TREATMENT",
            "2013-06-11",
            "2013-06-11",
            13,
            13,
            ""
          ],
          [
            456,
            "CDISCPILOT01",
            "SV",
            "01-701-1363",
            4,
            "WEEK 2",
            14,
            "TREATMENT",
            "2013-06-12",
            "2013-06-12",
            14,
            14,
            ""
          ],
          [
            457,
            "CDISCPILOT01",
            "SV",
            "01-701-1363",
            5,
            "WEEK 4",
            28,
            "TREATMENT",
            "2013-06-25",
            "2013-06-25",
            27,
            27,
            ""
          ],
          [
            458,
            "CDISCPILOT01",
            "SV",
            "01-701-1363",
            6,
            "AMBUL ECG REMOVAL",
            30,
            "TREATMENT",
            "2013-06-27",
            "2013-06-27",
            29,
            29,
            ""
          ],
          [
            459,
            "CDISCPILOT01",
            "SV",
            "01-701-1363",
            7,
            "WEEK 6",
            42,
            "TREATMENT",
            "2013-07-10",
            "2013-07-10",
            42,
            42,
            ""
          ],
          [
            460,
            "CDISCPILOT01",
            "SV",
            "01-701-1363",
            8,
            "WEEK 8",
            56,
            "TREATMENT",
            "2013-07-24",
            "2013-07-24",
            56,
            56,
            ""
          ],
          [
            461,
            "CDISCPILOT01",
            "SV",
            "01-701-1363",
            8.1,
            "WEEK 10 (T)",
            70,
            "TREATMENT",
            "2013-08-07",
            "2013-08-07",
            70,
            70,
            ""
          ],
          [
            462,
            "CDISCPILOT01",
            "SV",
            "01-701-1363",
            9,
            "WEEK 12",
            84,
            "TREATMENT",
            "2013-08-21",
            "2013-08-21",
            84,
            84,
            ""
          ],
          [
            463,
            "CDISCPILOT01",
            "SV",
            "01-701-1363",
            9.1,
            "WEEK 14 (T)",
            98,
            "TREATMENT",
            "2013-09-04",
            "2013-09-04",
            98,
            98,
            ""
          ],
          [
            464,
            "CDISCPILOT01",
            "SV",
            "01-701-1363",
            10,
            "WEEK 16",
            112,
            "TREATMENT",
            "2013-09-18",
            "2013-09-18",
            112,
            112,
            ""
          ],
          [
            465,
            "CDISCPILOT01",
            "SV",
            "01-701-1363",
            10.1,
            "WEEK 18 (T)",
            126,
            "TREATMENT",
            "2013-10-02",
            "2013-10-02",
            126,
            126,
            ""
          ],
          [
            466,
            "CDISCPILOT01",
            "SV",
            "01-701-1363",
            10.2,
            "UNSCHEDULED 10.2",
            null,
            "TREATMENT",
            "2013-10-02",
            "2013-10-02",
            126,
            126,
            "Unplanned visit to complete unscheduled assessments"
          ],
          [
            467,
            "CDISCPILOT01",
            "SV",
            "01-701-1363",
            11,
            "WEEK 20",
            140,
            "TREATMENT",
            "2013-10-14",
            "2013-10-14",
            138,
            138,
            ""
          ],
          [
            468,
            "CDISCPILOT01",
            "SV",
            "01-701-1363",
            11.1,
            "WEEK 22 (T)",
            154,
            "TREATMENT",
            "2013-10-30",
            "2013-10-30",
            154,
            154,
            ""
          ],
          [
            469,
            "CDISCPILOT01",
            "SV",
            "01-701-1363",
            12,
            "WEEK 24",
            168,
            "TREATMENT",
            "2013-11-13",
            "2013-11-13",
            168,
            168,
            ""
          ],
          [
            470,
            "CDISCPILOT01",
            "SV",
            "01-701-1363",
            13,
            "WEEK 26",
            182,
            "TREATMENT",
            "2013-11-27",
            "2013-11-27",
            182,
            182,
            ""
          ],
          [
            471,
            "CDISCPILOT01",
            "SV",
            "01-701-1369",
            1,
            "SCREENING 1",
            -7,
            "SCREENING",
            "2013-09-18",
            "2013-09-18",
            null,
            null,
            ""
          ],
          [
            472,
            "CDISCPILOT01",
            "SV",
            "01-701-1383",
            1,
            "SCREENING 1",
            -7,
            "SCREENING",
            "2013-01-22",
            "2013-01-22",
            -13,
            -13,
            ""
          ],
          [
            473,
            "CDISCPILOT01",
            "SV",
            "01-701-1383",
            2,
            "SCREENING 2",
            -1,
            "SCREENING",
            "2013-02-02",
            "2013-02-02",
            -2,
            -2,
            ""
          ],
          [
            474,
            "CDISCPILOT01",
            "SV",
            "01-701-1383",
            3,
            "BASELINE",
            1,
            "TREATMENT",
            "2013-02-04",
            "2013-02-04",
            1,
            1,
            ""
          ],
          [
            475,
            "CDISCPILOT01",
            "SV",
            "01-701-1383",
            3.5,
            "AMBUL ECG PLACEMENT",
            13,
            "TREATMENT",
            "2013-02-18",
            "2013-02-18",
            15,
            15,
            ""
          ],
          [
            476,
            "CDISCPILOT01",
            "SV",
            "01-701-1383",
            4,
            "WEEK 2",
            14,
            "TREATMENT",
            "2013-02-19",
            "2013-02-19",
            16,
            16,
            ""
          ],
          [
            477,
            "CDISCPILOT01",
            "SV",
            "01-701-1383",
            5,
            "WEEK 4",
            28,
            "TREATMENT",
            "2013-03-12",
            "2013-03-12",
            37,
            37,
            ""
          ],
          [
            478,
            "CDISCPILOT01",
            "SV",
            "01-701-1383",
            6,
            "AMBUL ECG REMOVAL",
            30,
            "TREATMENT",
            "2013-03-14",
            "2013-03-14",
            39,
            39,
            ""
          ],
          [
            479,
            "CDISCPILOT01",
            "SV",
            "01-701-1383",
            7,
            "WEEK 6",
            42,
            "TREATMENT",
            "2013-03-19",
            "2013-03-19",
            44,
            44,
            ""
          ],
          [
            480,
            "CDISCPILOT01",
            "SV",
            "01-701-1383",
            8,
            "WEEK 8",
            56,
            "TREATMENT",
            "2013-04-02",
            "2013-04-02",
            58,
            58,
            ""
          ],
          [
            481,
            "CDISCPILOT01",
            "SV",
            "01-701-1383",
            8.1,
            "WEEK 10 (T)",
            70,
            "TREATMENT",
            "2013-04-16",
            "2013-04-16",
            72,
            72,
            ""
          ],
          [
            482,
            "CDISCPILOT01",
            "SV",
            "01-701-1383",
            9,
            "WEEK 12",
            84,
            "TREATMENT",
            "2013-04-30",
            "2013-04-30",
            86,
            86,
            ""
          ],
          [
            483,
            "CDISCPILOT01",
            "SV",
            "01-701-1383",
            9.1,
            "WEEK 14 (T)",
            98,
            "TREATMENT",
            "2013-05-14",
            "2013-05-14",
            100,
            100,
            ""
          ],
          [
            484,
            "CDISCPILOT01",
            "SV",
            "01-701-1383",
            10,
            "WEEK 16",
            112,
            "TREATMENT",
            "2013-05-30",
            "2013-05-30",
            116,
            116,
            ""
          ],
          [
            485,
            "CDISCPILOT01",
            "SV",
            "01-701-1383",
            10.1,
            "WEEK 18 (T)",
            126,
            "TREATMENT",
            "2013-06-13",
            "2013-06-13",
            130,
            130,
            ""
          ],
          [
            486,
            "CDISCPILOT01",
            "SV",
            "01-701-1383",
            11,
            "WEEK 20",
            140,
            "TREATMENT",
            "2013-06-25",
            "2013-06-25",
            142,
            142,
            ""
          ],
          [
            487,
            "CDISCPILOT01",
            "SV",
            "01-701-1383",
            11.1,
            "WEEK 22 (T)",
            154,
            "TREATMENT",
            "2013-07-09",
            "2013-07-09",
            156,
            156,
            ""
          ],
          [
            488,
            "CDISCPILOT01",
            "SV",
            "01-701-1383",
            12,
            "WEEK 24",
            168,
            "TREATMENT",
            "2013-07-30",
            "2013-07-30",
            177,
            177,
            ""
          ],
          [
            489,
            "CDISCPILOT01",
            "SV",
            "01-701-1383",
            13,
            "WEEK 26",
            182,
            "TREATMENT",
            "2013-08-06",
            "2013-08-06",
            184,
            184,
            ""
          ],
          [
            490,
            "CDISCPILOT01",
            "SV",
            "01-701-1386",
            1,
            "SCREENING 1",
            -7,
            "SCREENING",
            "2013-12-28",
            "2013-12-28",
            null,
            null,
            ""
          ],
          [
            491,
            "CDISCPILOT01",
            "SV",
            "01-701-1387",
            1,
            "SCREENING 1",
            -7,
            "SCREENING",
            "2014-02-23",
            "2014-02-23",
            -17,
            -17,
            ""
          ],
          [
            492,
            "CDISCPILOT01",
            "SV",
            "01-701-1387",
            2,
            "SCREENING 2",
            -1,
            "SCREENING",
            "2014-03-08",
            "2014-03-08",
            -4,
            -4,
            ""
          ],
          [
            493,
            "CDISCPILOT01",
            "SV",
            "01-701-1387",
            3,
            "BASELINE",
            1,
            "TREATMENT",
            "2014-03-12",
            "2014-03-12",
            1,
            1,
            ""
          ],
          [
            494,
            "CDISCPILOT01",
            "SV",
            "01-701-1387",
            4,
            "WEEK 2",
            14,
            "TREATMENT",
            "2014-03-25",
            "2014-03-25",
            14,
            14,
            ""
          ],
          [
            495,
            "CDISCPILOT01",
            "SV",
            "01-701-1387",
            201,
            "RETRIEVAL",
            168,
            "FOLLOW-UP",
            "2014-08-27",
            "2014-08-27",
            169,
            169,
            ""
          ],
          [
            496,
            "CDISCPILOT01",
            "SV",
            "01-701-1392",
            1,
            "SCREENING 1",
            -7,
            "SCREENING",
            "2012-10-17",
            "2012-10-17",
            -11,
            -11,
            ""
          ],
          [
            497,
            "CDISCPILOT01",
            "SV",
            "01-701-1392",
            2,
            "SCREENING 2",
            -1,
            "SCREENING",
            "2012-10-26",
            "2012-10-26",
            -2,
            -2,
            ""
          ],
          [
            498,
            "CDISCPILOT01",
            "SV",
            "01-701-1392",
            3,
            "BASELINE",
            1,
            "TREATMENT",
            "2012-10-28",
            "2012-10-28",
            1,
            1,
            ""
          ],
          [
            499,
            "CDISCPILOT01",
            "SV",
            "01-701-1392",
            3.5,
            "AMBUL ECG PLACEMENT",
            13,
            "TREATMENT",
            "2012-11-10",
            "2012-11-10",
            14,
            14,
            ""
          ],
          [
            500,
            "CDISCPILOT01",
            "SV",
            "01-701-1392",
            4,
            "WEEK 2",
            14,
            "TREATMENT",
            "2012-11-11",
            "2012-11-11",
            15,
            15,
            ""
          ],
          [
            501,
            "CDISCPILOT01",
            "SV",
            "01-701-1392",
            5,
            "WEEK 4",
            28,
            "TREATMENT",
            "2012-11-24",
            "2012-11-24",
            28,
            28,
            ""
          ],
          [
            502,
            "CDISCPILOT01",
            "SV",
            "01-701-1392",
            6,
            "AMBUL ECG REMOVAL",
            30,
            "TREATMENT",
            "2012-11-26",
            "2012-11-26",
            30,
            30,
            ""
          ],
          [
            503,
            "CDISCPILOT01",
            "SV",
            "01-701-1392",
            7,
            "WEEK 6",
            42,
            "TREATMENT",
            "2012-12-09",
            "2012-12-09",
            43,
            43,
            ""
          ],
          [
            504,
            "CDISCPILOT01",
            "SV",
            "01-701-1392",
            8,
            "WEEK 8",
            56,
            "TREATMENT",
            "2012-12-20",
            "2012-12-20",
            54,
            54,
            ""
          ],
          [
            505,
            "CDISCPILOT01",
            "SV",
            "01-701-1392",
            8.1,
            "WEEK 10 (T)",
            70,
            "TREATMENT",
            "2013-01-06",
            "2013-01-06",
            71,
            71,
            ""
          ],
          [
            506,
            "CDISCPILOT01",
            "SV",
            "01-701-1392",
            9,
            "WEEK 12",
            84,
            "TREATMENT",
            "2013-01-20",
            "2013-01-20",
            85,
            85,
            ""
          ],
          [
            507,
            "CDISCPILOT01",
            "SV",
            "01-701-1392",
            9.1,
            "WEEK 14 (T)",
            98,
            "TREATMENT",
            "2013-02-03",
            "2013-02-03",
            99,
            99,
            ""
          ],
          [
            508,
            "CDISCPILOT01",
            "SV",
            "01-701-1392",
            10,
            "WEEK 16",
            112,
            "TREATMENT",
            "2013-02-17",
            "2013-02-17",
            113,
            113,
            ""
          ],
          [
            509,
            "CDISCPILOT01",
            "SV",
            "01-701-1392",
            10.1,
            "WEEK 18 (T)",
            126,
            "TREATMENT",
            "2013-03-03",
            "2013-03-03",
            127,
            127,
            ""
          ],
          [
            510,
            "CDISCPILOT01",
            "SV",
            "01-701-1392",
            11,
            "WEEK 20",
            140,
            "TREATMENT",
            "2013-03-17",
            "2013-03-17",
            141,
            141,
            ""
          ],
          [
            511,
            "CDISCPILOT01",
            "SV",
            "01-701-1392",
            11.1,
            "WEEK 22 (T)",
            154,
            "TREATMENT",
            "2013-03-31",
            "2013-03-31",
            155,
            155,
            ""
          ],
          [
            512,
            "CDISCPILOT01",
            "SV",
            "01-701-1392",
            12,
            "WEEK 24",
            168,
            "TREATMENT",
            "2013-04-15",
            "2013-04-15",
            170,
            170,
            ""
          ],
          [
            513,
            "CDISCPILOT01",
            "SV",
            "01-701-1392",
            13,
            "WEEK 26",
            182,
            "TREATMENT",
            "2013-04-28",
            "2013-04-28",
            183,
            183,
            ""
          ],
          [
            514,
            "CDISCPILOT01",
            "SV",
            "01-701-1411",
            1,
            "SCREENING 1",
            -7,
            "SCREENING",
            "2012-11-14",
            "2012-11-14",
            null,
            null,
            ""
          ],
          [
            515,
            "CDISCPILOT01",
            "SV",
            "01-701-1415",
            1,
            "SCREENING 1",
            -7,
            "SCREENING",
            "2013-09-15",
            "2013-09-15",
            -8,
            -8,
            ""
          ],
          [
            516,
            "CDISCPILOT01",
            "SV",
            "01-701-1415",
            1.1,
            "UNSCHEDULED 1.1",
            null,
            "SCREENING",
            "2013-09-21",
            "2013-09-21",
            -2,
            -2,
            "Unplanned visit to complete unscheduled assessments"
          ],
          [
            517,
            "CDISCPILOT01",
            "SV",
            "01-701-1415",
            2,
            "SCREENING 2",
            -1,
            "SCREENING",
            "2013-09-21",
            "2013-09-21",
            -2,
            -2,
            ""
          ],
          [
            518,
            "CDISCPILOT01",
            "SV",
            "01-701-1415",
            3,
            "BASELINE",
            1,
            "TREATMENT",
            "2013-09-23",
            "2013-09-23",
            1,
            1,
            ""
          ],
          [
            519,
            "CDISCPILOT01",
            "SV",
            "01-701-1415",
            3.5,
            "AMBUL ECG PLACEMENT",
            13,
            "TREATMENT",
            "2013-10-06",
            "2013-10-06",
            14,
            14,
            ""
          ],
          [
            520,
            "CDISCPILOT01",
            "SV",
            "01-701-1415",
            4,
            "WEEK 2",
            14,
            "TREATMENT",
            "2013-10-07",
            "2013-10-07",
            15,
            15,
            ""
          ],
          [
            521,
            "CDISCPILOT01",
            "SV",
            "01-701-1415",
            5,
            "WEEK 4",
            28,
            "TREATMENT",
            "2013-10-20",
            "2013-10-20",
            28,
            28,
            ""
          ],
          [
            522,
            "CDISCPILOT01",
            "SV",
            "01-701-1415",
            6,
            "AMBUL ECG REMOVAL",
            30,
            "TREATMENT",
            "2013-10-22",
            "2013-10-22",
            30,
            30,
            ""
          ],
          [
            523,
            "CDISCPILOT01",
            "SV",
            "01-701-1415",
            7,
            "WEEK 6",
            42,
            "TREATMENT",
            "2013-11-04",
            "2013-11-04",
            43,
            43,
            ""
          ],
          [
            524,
            "CDISCPILOT01",
            "SV",
            "01-701-1415",
            8,
            "WEEK 8",
            56,
            "TREATMENT",
            "2013-11-21",
            "2013-11-21",
            60,
            60,
            ""
          ],
          [
            525,
            "CDISCPILOT01",
            "SV",
            "01-701-1415",
            8.1,
            "WEEK 10 (T)",
            70,
            "TREATMENT",
            "2013-12-02",
            "2013-12-02",
            71,
            71,
            ""
          ],
          [
            526,
            "CDISCPILOT01",
            "SV",
            "01-701-1415",
            9,
            "WEEK 12",
            84,
            "TREATMENT",
            "2013-12-21",
            "2013-12-21",
            90,
            90,
            ""
          ],
          [
            527,
            "CDISCPILOT01",
            "SV",
            "01-701-1415",
            9.1,
            "WEEK 14 (T)",
            98,
            "TREATMENT",
            "2013-12-30",
            "2013-12-30",
            99,
            99,
            ""
          ],
          [
            528,
            "CDISCPILOT01",
            "SV",
            "01-701-1415",
            10,
            "WEEK 16",
            112,
            "TREATMENT",
            "2014-01-14",
            "2014-01-14",
            114,
            114,
            ""
          ],
          [
            529,
            "CDISCPILOT01",
            "SV",
            "01-701-1415",
            10.1,
            "WEEK 18 (T)",
            126,
            "TREATMENT",
            "2014-01-27",
            "2014-01-27",
            127,
            127,
            ""
          ],
          [
            530,
            "CDISCPILOT01",
            "SV",
            "01-701-1415",
            11,
            "WEEK 20",
            140,
            "TREATMENT",
            "2014-02-10",
            "2014-02-10",
            141,
            141,
            ""
          ],
          [
            531,
            "CDISCPILOT01",
            "SV",
            "01-701-1415",
            11.1,
            "WEEK 22 (T)",
            154,
            "TREATMENT",
            "2014-02-24",
            "2014-02-24",
            155,
            155,
            ""
          ],
          [
            532,
            "CDISCPILOT01",
            "SV",
            "01-701-1415",
            12,
            "WEEK 24",
            168,
            "TREATMENT",
            "2014-03-10",
            "2014-03-10",
            169,
            169,
            ""
          ],
          [
            533,
            "CDISCPILOT01",
            "SV",
            "01-701-1415",
            13,
            "WEEK 26",
            182,
            "TREATMENT",
            "2014-03-24",
            "2014-03-24",
            183,
            183,
            ""
          ],
          [
            534,
            "CDISCPILOT01",
            "SV",
            "01-701-1429",
            1,
            "SCREENING 1",
            -7,
            "SCREENING",
            "2013-02-25",
            "2013-02-25",
            -22,
            -22,
            ""
          ],
          [
            535,
            "CDISCPILOT01",
            "SV",
            "01-701-1429",
            2,
            "SCREENING 2",
            -1,
            "SCREENING",
            "2013-03-17",
            "2013-03-17",
            -2,
            -2,
            ""
          ],
          [
            536,
            "CDISCPILOT01",
            "SV",
            "01-701-1429",
            3,
            "BASELINE",
            1,
            "TREATMENT",
            "2013-03-19",
            "2013-03-19",
            1,
            1,
            ""
          ],
          [
            537,
            "CDISCPILOT01",
            "SV",
            "01-701-1429",
            4,
            "WEEK 2",
            14,
            "TREATMENT",
            "2013-04-02",
            "2013-04-02",
            15,
            15,
            ""
          ],
          [
            538,
            "CDISCPILOT01",
            "SV",
            "01-701-1429",
            5,
            "WEEK 4",
            28,
            "TREATMENT",
            "2013-04-16",
            "2013-04-16",
            29,
            29,
            ""
          ],
          [
            539,
            "CDISCPILOT01",
            "SV",
            "01-701-1429",
            7,
            "WEEK 6",
            42,
            "TREATMENT",
            "2013-04-30",
            "2013-04-30",
            43,
            43,
            ""
          ],
          [
            540,
            "CDISCPILOT01",
            "SV",
            "01-701-1440",
            1,
            "SCREENING 1",
            -7,
            "SCREENING",
            "2013-07-24",
            "2013-07-24",
            -15,
            -15,
            ""
          ],
          [
            541,
            "CDISCPILOT01",
            "SV",
            "01-701-1440",
            2,
            "SCREENING 2",
            -1,
            "SCREENING",
            "2013-08-06",
            "2013-08-06",
            -2,
            -2,
            ""
          ],
          [
            542,
            "CDISCPILOT01",
            "SV",
            "01-701-1440",
            3,
            "BASELINE",
            1,
            "TREATMENT",
            "2013-08-08",
            "2013-08-08",
            1,
            1,
            ""
          ],
          [
            543,
            "CDISCPILOT01",
            "SV",
            "01-701-1440",
            3.5,
            "AMBUL ECG PLACEMENT",
            13,
            "TREATMENT",
            "2013-08-22",
            "2013-08-22",
            15,
            15,
            ""
          ],
          [
            544,
            "CDISCPILOT01",
            "SV",
            "01-701-1440",
            4,
            "WEEK 2",
            14,
            "TREATMENT",
            "2013-08-23",
            "2013-08-23",
            16,
            16,
            ""
          ],
          [
            545,
            "CDISCPILOT01",
            "SV",
            "01-701-1440",
            5,
            "WEEK 4",
            28,
            "TREATMENT",
            "2013-09-04",
            "2013-09-04",
            28,
            28,
            ""
          ],
          [
            546,
            "CDISCPILOT01",
            "SV",
            "01-701-1440",
            6,
            "AMBUL ECG REMOVAL",
            30,
            "TREATMENT",
            "2013-09-06",
            "2013-09-06",
            30,
            30,
            ""
          ],
          [
            547,
            "CDISCPILOT01",
            "SV",
            "01-701-1440",
            7,
            "WEEK 6",
            42,
            "TREATMENT",
            "2013-09-22",
            "2013-09-22",
            46,
            46,
            ""
          ],
          [
            548,
            "CDISCPILOT01",
            "SV",
            "01-701-1440",
            8,
            "WEEK 8",
            56,
            "TREATMENT",
            "2013-10-03",
            "2013-10-03",
            57,
            57,
            ""
          ],
          [
            549,
            "CDISCPILOT01",
            "SV",
            "01-701-1440",
            8.1,
            "WEEK 10 (T)",
            70,
            "TREATMENT",
            "2013-10-17",
            "2013-10-17",
            71,
            71,
            ""
          ],
          [
            550,
            "CDISCPILOT01",
            "SV",
            "01-701-1440",
            9,
            "WEEK 12",
            84,
            "TREATMENT",
            "2013-10-31",
            "2013-10-31",
            85,
            85,
            ""
          ],
          [
            551,
            "CDISCPILOT01",
            "SV",
            "01-701-1440",
            9.1,
            "WEEK 14 (T)",
            98,
            "TREATMENT",
            "2013-11-14",
            "2013-11-14",
            99,
            99,
            ""
          ],
          [
            552,
            "CDISCPILOT01",
            "SV",
            "01-701-1440",
            10,
            "WEEK 16",
            112,
            "TREATMENT",
            "2013-11-27",
            "2013-11-27",
            112,
            112,
            ""
          ],
          [
            553,
            "CDISCPILOT01",
            "SV",
            "01-701-1440",
            10.1,
            "WEEK 18 (T)",
            126,
            "TREATMENT",
            "2013-12-12",
            "2013-12-12",
            127,
            127,
            ""
          ],
          [
            554,
            "CDISCPILOT01",
            "SV",
            "01-701-1440",
            11,
            "WEEK 20",
            140,
            "TREATMENT",
            "2013-12-25",
            "2013-12-25",
            140,
            140,
            ""
          ],
          [
            555,
            "CDISCPILOT01",
            "SV",
            "01-701-1440",
            11.1,
            "WEEK 22 (T)",
            154,
            "TREATMENT",
            "2014-01-08",
            "2014-01-08",
            154,
            154,
            ""
          ],
          [
            556,
            "CDISCPILOT01",
            "SV",
            "01-701-1440",
            12,
            "WEEK 24",
            168,
            "TREATMENT",
            "2014-01-22",
            "2014-01-22",
            168,
            168,
            ""
          ],
          [
            557,
            "CDISCPILOT01",
            "SV",
            "01-701-1440",
            13,
            "WEEK 26",
            182,
            "TREATMENT",
            "2014-02-05",
            "2014-02-05",
            182,
            182,
            ""
          ],
          [
            558,
            "CDISCPILOT01",
            "SV",
            "01-701-1442",
            1,
            "SCREENING 1",
            -7,
            "SCREENING",
            "2013-10-17",
            "2013-10-17",
            -9,
            -9,
            ""
          ],
          [
            559,
            "CDISCPILOT01",
            "SV",
            "01-701-1442",
            2,
            "SCREENING 2",
            -1,
            "SCREENING",
            "2013-10-24",
            "2013-10-24",
            -2,
            -2,
            ""
          ],
          [
            560,
            "CDISCPILOT01",
            "SV",
            "01-701-1442",
            3,
            "BASELINE",
            1,
            "TREATMENT",
            "2013-10-26",
            "2013-10-26",
            1,
            1,
            ""
          ],
          [
            561,
            "CDISCPILOT01",
            "SV",
            "01-701-1442",
            3.5,
            "AMBUL ECG PLACEMENT",
            13,
            "TREATMENT",
            "2013-11-08",
            "2013-11-08",
            14,
            14,
            ""
          ],
          [
            562,
            "CDISCPILOT01",
            "SV",
            "01-701-1442",
            4,
            "WEEK 2",
            14,
            "TREATMENT",
            "2013-11-09",
            "2013-11-09",
            15,
            15,
            ""
          ],
          [
            563,
            "CDISCPILOT01",
            "SV",
            "01-701-1442",
            5,
            "WEEK 4",
            28,
            "TREATMENT",
            "2013-11-23",
            "2013-11-23",
            29,
            29,
            ""
          ],
          [
            564,
            "CDISCPILOT01",
            "SV",
            "01-701-1442",
            6,
            "AMBUL ECG REMOVAL",
            30,
            "TREATMENT",
            "2013-11-25",
            "2013-11-25",
            31,
            31,
            ""
          ],
          [
            565,
            "CDISCPILOT01",
            "SV",
            "01-701-1442",
            7,
            "WEEK 6",
            42,
            "TREATMENT",
            "2013-12-07",
            "2013-12-07",
            43,
            43,
            ""
          ],
          [
            566,
            "CDISCPILOT01",
            "SV",
            "01-701-1442",
            8,
            "WEEK 8",
            56,
            "TREATMENT",
            "2013-12-26",
            "2013-12-26",
            62,
            62,
            ""
          ],
          [
            567,
            "CDISCPILOT01",
            "SV",
            "01-701-1442",
            8.1,
            "WEEK 10 (T)",
            70,
            "TREATMENT",
            "2014-01-04",
            "2014-01-04",
            71,
            71,
            ""
          ],
          [
            568,
            "CDISCPILOT01",
            "SV",
            "01-701-1442",
            9,
            "WEEK 12",
            84,
            "TREATMENT",
            "2014-01-18",
            "2014-01-18",
            85,
            85,
            ""
          ],
          [
            569,
            "CDISCPILOT01",
            "SV",
            "01-701-1442",
            9.1,
            "WEEK 14 (T)",
            98,
            "TREATMENT",
            "2014-02-01",
            "2014-02-01",
            99,
            99,
            ""
          ],
          [
            570,
            "CDISCPILOT01",
            "SV",
            "01-701-1442",
            10,
            "WEEK 16",
            112,
            "TREATMENT",
            "2014-02-15",
            "2014-02-15",
            113,
            113,
            ""
          ],
          [
            571,
            "CDISCPILOT01",
            "SV",
            "01-701-1442",
            10.1,
            "WEEK 18 (T)",
            126,
            "TREATMENT",
            "2014-03-01",
            "2014-03-01",
            127,
            127,
            ""
          ],
          [
            572,
            "CDISCPILOT01",
            "SV",
            "01-701-1442",
            11,
            "WEEK 20",
            140,
            "TREATMENT",
            "2014-03-15",
            "2014-03-15",
            141,
            141,
            ""
          ],
          [
            573,
            "CDISCPILOT01",
            "SV",
            "01-701-1442",
            11.1,
            "WEEK 22 (T)",
            154,
            "TREATMENT",
            "2014-03-29",
            "2014-03-29",
            155,
            155,
            ""
          ],
          [
            574,
            "CDISCPILOT01",
            "SV",
            "01-701-1442",
            12,
            "WEEK 24",
            168,
            "TREATMENT",
            "2014-04-17",
            "2014-04-17",
            174,
            174,
            ""
          ],
          [
            575,
            "CDISCPILOT01",
            "SV",
            "01-701-1442",
            13,
            "WEEK 26",
            182,
            "TREATMENT",
            "2014-04-26",
            "2014-04-26",
            183,
            183,
            ""
          ],
          [
            576,
            "CDISCPILOT01",
            "SV",
            "01-701-1444",
            1,
            "SCREENING 1",
            -7,
            "SCREENING",
            "2012-12-31",
            "2012-12-31",
            -5,
            -5,
            ""
          ],
          [
            577,
            "CDISCPILOT01",
            "SV",
            "01-701-1444",
            2,
            "SCREENING 2",
            -1,
            "SCREENING",
            "2013-01-03",
            "2013-01-03",
            -2,
            -2,
            ""
          ],
          [
            578,
            "CDISCPILOT01",
            "SV",
            "01-701-1444",
            3,
            "BASELINE",
            1,
            "TREATMENT",
            "2013-01-05",
            "2013-01-05",
            1,
            1,
            ""
          ],
          [
            579,
            "CDISCPILOT01",
            "SV",
            "01-701-1444",
            3.5,
            "AMBUL ECG PLACEMENT",
            13,
            "TREATMENT",
            "2013-01-17",
            "2013-01-17",
            13,
            13,
            ""
          ],
          [
            580,
            "CDISCPILOT01",
            "SV",
            "01-701-1444",
            4,
            "WEEK 2",
            14,
            "TREATMENT",
            "2013-01-18",
            "2013-01-18",
            14,
            14,
            ""
          ],
          [
            581,
            "CDISCPILOT01",
            "SV",
            "01-701-1444",
            5,
            "WEEK 4",
            28,
            "TREATMENT",
            "2013-01-31",
            "2013-01-31",
            27,
            27,
            ""
          ],
          [
            582,
            "CDISCPILOT01",
            "SV",
            "01-701-1444",
            6,
            "AMBUL ECG REMOVAL",
            30,
            "TREATMENT",
            "2013-02-02",
            "2013-02-02",
            29,
            29,
            ""
          ],
          [
            583,
            "CDISCPILOT01",
            "SV",
            "01-701-1444",
            7,
            "WEEK 6",
            42,
            "TREATMENT",
            "2013-02-13",
            "2013-02-13",
            40,
            40,
            ""
          ],
          [
            584,
            "CDISCPILOT01",
            "SV",
            "01-701-1444",
            101,
            "AE FOLLOW-UP",
            null,
            "FOLLOW-UP",
            "2013-06-20",
            "2013-06-20",
            167,
            167,
            ""
          ],
          [
            585,
            "CDISCPILOT01",
            "SV",
            "01-701-1444",
            201,
            "RETRIEVAL",
            168,
            "FOLLOW-UP",
            "2013-06-20",
            "2013-06-20",
            167,
            167,
            ""
          ],
          [
            586,
            "CDISCPILOT01",
            "SV",
            "01-702-1082",
            1,
            "SCREENING 1",
            -7,
            "SCREENING",
            "2013-07-03",
            "2013-07-03",
            -23,
            -23,
            ""
          ],
          [
            587,
            "CDISCPILOT01",
            "SV",
            "01-702-1082",
            1.1,
            "UNSCHEDULED 1.1",
            null,
            "SCREENING",
            "2013-07-24",
            "2013-07-24",
            -2,
            -2,
            "Unplanned visit to complete unscheduled assessments"
          ],
          [
            588,
            "CDISCPILOT01",
            "SV",
            "01-702-1082",
            2,
            "SCREENING 2",
            -1,
            "SCREENING",
            "2013-07-24",
            "2013-07-24",
            -2,
            -2,
            ""
          ],
          [
            589,
            "CDISCPILOT01",
            "SV",
            "01-702-1082",
            3,
            "BASELINE",
            1,
            "TREATMENT",
            "2013-07-26",
            "2013-07-26",
            1,
            1,
            ""
          ],
          [
            590,
            "CDISCPILOT01",
            "SV",
            "01-702-1082",
            3.5,
            "AMBUL ECG PLACEMENT",
            13,
            "TREATMENT",
            "2013-08-07",
            "2013-08-07",
            13,
            13,
            ""
          ],
          [
            591,
            "CDISCPILOT01",
            "SV",
            "01-702-1082",
            4,
            "WEEK 2",
            14,
            "TREATMENT",
            "2013-08-08",
            "2013-08-08",
            14,
            14,
            ""
          ],
          [
            592,
            "CDISCPILOT01",
            "SV",
            "01-702-1082",
            5,
            "WEEK 4",
            28,
            "TREATMENT",
            "2013-08-24",
            "2013-08-24",
            30,
            30,
            ""
          ],
          [
            593,
            "CDISCPILOT01",
            "SV",
            "01-702-1082",
            6,
            "AMBUL ECG REMOVAL",
            30,
            "TREATMENT",
            "2013-09-04",
            "2013-09-04",
            41,
            41,
            ""
          ],
          [
            594,
            "CDISCPILOT01",
            "SV",
            "01-702-1082",
            7,
            "WEEK 6",
            42,
            "TREATMENT",
            "2013-09-06",
            "2013-09-06",
            43,
            43,
            ""
          ],
          [
            595,
            "CDISCPILOT01",
            "SV",
            "01-702-1082",
            8,
            "WEEK 8",
            56,
            "TREATMENT",
            "2013-09-28",
            "2013-09-28",
            65,
            65,
            ""
          ],
          [
            596,
            "CDISCPILOT01",
            "SV",
            "01-702-1082",
            8.1,
            "WEEK 10 (T)",
            70,
            "TREATMENT",
            "2013-10-12",
            "2013-10-12",
            79,
            79,
            ""
          ],
          [
            597,
            "CDISCPILOT01",
            "SV",
            "01-702-1082",
            9,
            "WEEK 12",
            84,
            "TREATMENT",
            "2013-11-17",
            "2013-11-17",
            115,
            115,
            ""
          ],
          [
            598,
            "CDISCPILOT01",
            "SV",
            "01-703-1042",
            1,
            "SCREENING 1",
            -7,
            "SCREENING",
            "2013-02-23",
            "2013-02-23",
            -7,
            -7,
            ""
          ],
          [
            599,
            "CDISCPILOT01",
            "SV",
            "01-703-1042",
            1.1,
            "UNSCHEDULED 1.1",
            null,
            "",
            "2013-02-21",
            "2013-02-21",
            -9,
            -9,
            "Unplanned visit to complete unscheduled assessments"
          ],
          [
            600,
            "CDISCPILOT01",
            "SV",
            "01-703-1042",
            2,
            "SCREENING 2",
            -1,
            "SCREENING",
            "2013-02-28",
            "2013-02-28",
            -2,
            -2,
            ""
          ],
          [
            601,
            "CDISCPILOT01",
            "SV",
            "01-703-1042",
            3,
            "BASELINE",
            1,
            "TREATMENT",
            "2013-03-02",
            "2013-03-02",
            1,
            1,
            ""
          ],
          [
            602,
            "CDISCPILOT01",
            "SV",
            "01-703-1042",
            3.5,
            "AMBUL ECG PLACEMENT",
            13,
            "TREATMENT",
            "2013-03-13",
            "2013-03-13",
            12,
            12,
            ""
          ],
          [
            603,
            "CDISCPILOT01",
            "SV",
            "01-703-1042",
            4,
            "WEEK 2",
            14,
            "TREATMENT",
            "2013-03-14",
            "2013-03-14",
            13,
            13,
            ""
          ],
          [
            604,
            "CDISCPILOT01",
            "SV",
            "01-703-1042",
            5,
            "WEEK 4",
            28,
            "TREATMENT",
            "2013-03-28",
            "2013-03-28",
            27,
            27,
            ""
          ],
          [
            605,
            "CDISCPILOT01",
            "SV",
            "01-703-1042",
            6,
            "AMBUL ECG REMOVAL",
            30,
            "TREATMENT",
            "2013-03-30",
            "2013-03-30",
            29,
            29,
            ""
          ],
          [
            606,
            "CDISCPILOT01",
            "SV",
            "01-703-1042",
            7,
            "WEEK 6",
            42,
            "TREATMENT",
            "2013-04-13",
            "2013-04-13",
            43,
            43,
            ""
          ],
          [
            607,
            "CDISCPILOT01",
            "SV",
            "01-703-1042",
            8,
            "WEEK 8",
            56,
            "TREATMENT",
            "2013-04-27",
            "2013-04-27",
            57,
            57,
            ""
          ],
          [
            608,
            "CDISCPILOT01",
            "SV",
            "01-703-1042",
            8.1,
            "WEEK 10 (T)",
            70,
            "TREATMENT",
            "2013-05-11",
            "2013-05-11",
            71,
            71,
            ""
          ],
          [
            609,
            "CDISCPILOT01",
            "SV",
            "01-703-1042",
            9,
            "WEEK 12",
            84,
            "TREATMENT",
            "2013-05-25",
            "2013-05-25",
            85,
            85,
            ""
          ],
          [
            610,
            "CDISCPILOT01",
            "SV",
            "01-703-1042",
            9.1,
            "WEEK 14 (T)",
            98,
            "TREATMENT",
            "2013-06-08",
            "2013-06-08",
            99,
            99,
            ""
          ],
          [
            611,
            "CDISCPILOT01",
            "SV",
            "01-703-1042",
            10,
            "WEEK 16",
            112,
            "TREATMENT",
            "2013-06-22",
            "2013-06-22",
            113,
            113,
            ""
          ],
          [
            612,
            "CDISCPILOT01",
            "SV",
            "01-703-1042",
            10.1,
            "WEEK 18 (T)",
            126,
            "TREATMENT",
            "2013-07-06",
            "2013-07-06",
            127,
            127,
            ""
          ],
          [
            613,
            "CDISCPILOT01",
            "SV",
            "01-703-1042",
            11,
            "WEEK 20",
            140,
            "TREATMENT",
            "2013-07-20",
            "2013-07-20",
            141,
            141,
            ""
          ],
          [
            614,
            "CDISCPILOT01",
            "SV",
            "01-703-1042",
            11.1,
            "WEEK 22 (T)",
            154,
            "TREATMENT",
            "2013-08-03",
            "2013-08-03",
            155,
            155,
            ""
          ],
          [
            615,
            "CDISCPILOT01",
            "SV",
            "01-703-1042",
            12,
            "WEEK 24",
            168,
            "TREATMENT",
            "2013-08-09",
            "2013-08-09",
            161,
            161,
            ""
          ],
          [
            616,
            "CDISCPILOT01",
            "SV",
            "01-703-1042",
            13,
            "WEEK 26",
            182,
            "TREATMENT",
            "2013-08-31",
            "2013-08-31",
            183,
            183,
            ""
          ],
          [
            617,
            "CDISCPILOT01",
            "SV",
            "01-703-1076",
            1,
            "SCREENING 1",
            -7,
            "SCREENING",
            "2013-10-17",
            "2013-10-17",
            -8,
            -8,
            ""
          ],
          [
            618,
            "CDISCPILOT01",
            "SV",
            "01-703-1076",
            2,
            "SCREENING 2",
            -1,
            "SCREENING",
            "2013-10-23",
            "2013-10-23",
            -2,
            -2,
            ""
          ],
          [
            619,
            "CDISCPILOT01",
            "SV",
            "01-703-1076",
            3,
            "BASELINE",
            1,
            "TREATMENT",
            "2013-10-25",
            "2013-10-25",
            1,
            1,
            ""
          ],
          [
            620,
            "CDISCPILOT01",
            "SV",
            "01-703-1076",
            3.5,
            "AMBUL ECG PLACEMENT",
            13,
            "TREATMENT",
            "2013-11-05",
            "2013-11-05",
            12,
            12,
            ""
          ],
          [
            621,
            "CDISCPILOT01",
            "SV",
            "01-703-1076",
            4,
            "WEEK 2",
            14,
            "TREATMENT",
            "2013-11-06",
            "2013-11-06",
            13,
            13,
            ""
          ],
          [
            622,
            "CDISCPILOT01",
            "SV",
            "01-703-1076",
            5,
            "WEEK 4",
            28,
            "TREATMENT",
            "2013-11-20",
            "2013-11-20",
            27,
            27,
            ""
          ],
          [
            623,
            "CDISCPILOT01",
            "SV",
            "01-703-1076",
            6,
            "AMBUL ECG REMOVAL",
            30,
            "TREATMENT",
            "2013-11-22",
            "2013-11-22",
            29,
            29,
            ""
          ],
          [
            624,
            "CDISCPILOT01",
            "SV",
            "01-703-1076",
            7,
            "WEEK 6",
            42,
            "TREATMENT",
            "2013-12-04",
            "2013-12-04",
            41,
            41,
            ""
          ],
          [
            625,
            "CDISCPILOT01",
            "SV",
            "01-703-1076",
            8,
            "WEEK 8",
            56,
            "TREATMENT",
            "2013-12-17",
            "2013-12-17",
            54,
            54,
            ""
          ],
          [
            626,
            "CDISCPILOT01",
            "SV",
            "01-703-1076",
            9,
            "WEEK 12",
            84,
            "TREATMENT",
            "2013-12-24",
            "2013-12-24",
            61,
            61,
            ""
          ],
          [
            627,
            "CDISCPILOT01",
            "SV",
            "01-703-1076",
            101,
            "AE FOLLOW-UP",
            null,
            "FOLLOW-UP",
            "2014-01-21",
            "2014-01-21",
            89,
            89,
            ""
          ],
          [
            628,
            "CDISCPILOT01",
            "SV",
            "01-703-1086",
            1,
            "SCREENING 1",
            -7,
            "SCREENING",
            "2012-08-22",
            "2012-08-22",
            -11,
            -11,
            ""
          ],
          [
            629,
            "CDISCPILOT01",
            "SV",
            "01-703-1086",
            1.1,
            "UNSCHEDULED 1.1",
            null,
            "SCREENING",
            "2012-08-31",
            "2012-08-31",
            -2,
            -2,
            "Unplanned visit to complete unscheduled assessments"
          ],
          [
            630,
            "CDISCPILOT01",
            "SV",
            "01-703-1086",
            2,
            "SCREENING 2",
            -1,
            "SCREENING",
            "2012-08-31",
            "2012-08-31",
            -2,
            -2,
            ""
          ],
          [
            631,
            "CDISCPILOT01",
            "SV",
            "01-703-1086",
            3,
            "BASELINE",
            1,
            "TREATMENT",
            "2012-09-02",
            "2012-09-02",
            1,
            1,
            ""
          ],
          [
            632,
            "CDISCPILOT01",
            "SV",
            "01-703-1086",
            3.5,
            "AMBUL ECG PLACEMENT",
            13,
            "TREATMENT",
            "2012-09-15",
            "2012-09-15",
            14,
            14,
            ""
          ],
          [
            633,
            "CDISCPILOT01",
            "SV",
            "01-703-1086",
            4,
            "WEEK 2",
            14,
            "TREATMENT",
            "2012-09-16",
            "2012-09-16",
            15,
            15,
            ""
          ],
          [
            634,
            "CDISCPILOT01",
            "SV",
            "01-703-1086",
            5,
            "WEEK 4",
            28,
            "TREATMENT",
            "2012-09-30",
            "2012-09-30",
            29,
            29,
            ""
          ],
          [
            635,
            "CDISCPILOT01",
            "SV",
            "01-703-1086",
            6,
            "AMBUL ECG REMOVAL",
            30,
            "TREATMENT",
            "2012-10-02",
            "2012-10-02",
            31,
            31,
            ""
          ],
          [
            636,
            "CDISCPILOT01",
            "SV",
            "01-703-1086",
            7,
            "WEEK 6",
            42,
            "TREATMENT",
            "2012-10-13",
            "2012-10-13",
            42,
            42,
            ""
          ],
          [
            637,
            "CDISCPILOT01",
            "SV",
            "01-703-1086",
            8,
            "WEEK 8",
            56,
            "TREATMENT",
            "2012-10-27",
            "2012-10-27",
            56,
            56,
            ""
          ],
          [
            638,
            "CDISCPILOT01",
            "SV",
            "01-703-1086",
            8.1,
            "WEEK 10 (T)",
            70,
            "TREATMENT",
            "2012-11-10",
            "2012-11-10",
            70,
            70,
            ""
          ],
          [
            639,
            "CDISCPILOT01",
            "SV",
            "01-703-1086",
            9,
            "WEEK 12",
            84,
            "TREATMENT",
            "2012-11-27",
            "2012-11-27",
            87,
            87,
            ""
          ],
          [
            640,
            "CDISCPILOT01",
            "SV",
            "01-703-1086",
            9.1,
            "WEEK 14 (T)",
            98,
            "TREATMENT",
            "2012-12-11",
            "2012-12-11",
            101,
            101,
            ""
          ],
          [
            641,
            "CDISCPILOT01",
            "SV",
            "01-703-1086",
            10,
            "WEEK 16",
            112,
            "TREATMENT",
            "2012-12-24",
            "2012-12-24",
            114,
            114,
            ""
          ],
          [
            642,
            "CDISCPILOT01",
            "SV",
            "01-703-1086",
            101,
            "AE FOLLOW-UP",
            null,
            "FOLLOW-UP",
            "2013-01-02",
            "2013-01-02",
            123,
            123,
            ""
          ],
          [
            643,
            "CDISCPILOT01",
            "SV",
            "01-703-1086",
            201,
            "RETRIEVAL",
            168,
            "FOLLOW-UP",
            "2013-03-26",
            "2013-03-26",
            206,
            206,
            ""
          ],
          [
            644,
            "CDISCPILOT01",
            "SV",
            "01-703-1096",
            1,
            "SCREENING 1",
            -7,
            "SCREENING",
            "2012-12-19",
            "2012-12-19",
            -37,
            -37,
            ""
          ],
          [
            645,
            "CDISCPILOT01",
            "SV",
            "01-703-1096",
            1.1,
            "UNSCHEDULED 1.1",
            null,
            "SCREENING",
            "2012-12-19",
            "2012-12-19",
            -37,
            -37,
            "Unplanned visit to complete unscheduled assessments"
          ],
          [
            646,
            "CDISCPILOT01",
            "SV",
            "01-703-1096",
            1.2,
            "UNSCHEDULED 1.2",
            null,
            "SCREENING",
            "2012-12-29",
            "2012-12-29",
            -27,
            -27,
            "Unplanned visit to complete unscheduled assessments"
          ],
          [
            647,
            "CDISCPILOT01",
            "SV",
            "01-703-1096",
            1.3,
            "UNSCHEDULED 1.3",
            null,
            "SCREENING",
            "2013-01-23",
            "2013-01-23",
            -2,
            -2,
            "Unplanned visit to complete unscheduled assessments"
          ],
          [
            648,
            "CDISCPILOT01",
            "SV",
            "01-703-1096",
            2,
            "SCREENING 2",
            -1,
            "SCREENING",
            "2013-01-23",
            "2013-01-23",
            -2,
            -2,
            ""
          ],
          [
            649,
            "CDISCPILOT01",
            "SV",
            "01-703-1096",
            3,
            "BASELINE",
            1,
            "TREATMENT",
            "2013-01-25",
            "2013-01-25",
            1,
            1,
            ""
          ],
          [
            650,
            "CDISCPILOT01",
            "SV",
            "01-703-1096",
            3.5,
            "AMBUL ECG PLACEMENT",
            13,
            "TREATMENT",
            "2013-02-08",
            "2013-02-08",
            15,
            15,
            ""
          ],
          [
            651,
            "CDISCPILOT01",
            "SV",
            "01-703-1096",
            4,
            "WEEK 2",
            14,
            "TREATMENT",
            "2013-02-09",
            "2013-02-09",
            16,
            16,
            ""
          ],
          [
            652,
            "CDISCPILOT01",
            "SV",
            "01-703-1096",
            5,
            "WEEK 4",
            28,
            "TREATMENT",
            "2013-02-23",
            "2013-02-23",
            30,
            30,
            ""
          ],
          [
            653,
            "CDISCPILOT01",
            "SV",
            "01-703-1096",
            6,
            "AMBUL ECG REMOVAL",
            30,
            "TREATMENT",
            "2013-02-27",
            "2013-02-27",
            34,
            34,
            ""
          ],
          [
            654,
            "CDISCPILOT01",
            "SV",
            "01-703-1096",
            7,
            "WEEK 6",
            42,
            "TREATMENT",
            "2013-03-29",
            "2013-03-29",
            64,
            64,
            ""
          ],
          [
            655,
            "CDISCPILOT01",
            "SV",
            "01-703-1100",
            1,
            "SCREENING 1",
            -7,
            "SCREENING",
            "2013-02-28",
            "2013-02-28",
            -13,
            -13,
            ""
          ],
          [
            656,
            "CDISCPILOT01",
            "SV",
            "01-703-1100",
            1.1,
            "UNSCHEDULED 1.1",
            null,
            "",
            "2012-12-27",
            "2012-12-27",
            -76,
            -76,
            "Unplanned visit to complete unscheduled assessments"
          ],
          [
            657,
            "CDISCPILOT01",
            "SV",
            "01-703-1100",
            1.2,
            "UNSCHEDULED 1.2",
            null,
            "SCREENING",
            "2013-02-28",
            "2013-02-28",
            -13,
            -13,
            "Unplanned visit to complete unscheduled assessments"
          ],
          [
            658,
            "CDISCPILOT01",
            "SV",
            "01-703-1100",
            2,
            "SCREENING 2",
            -1,
            "SCREENING",
            "2013-03-11",
            "2013-03-11",
            -2,
            -2,
            ""
          ],
          [
            659,
            "CDISCPILOT01",
            "SV",
            "01-703-1100",
            3,
            "BASELINE",
            1,
            "TREATMENT",
            "2013-03-13",
            "2013-03-13",
            1,
            1,
            ""
          ],
          [
            660,
            "CDISCPILOT01",
            "SV",
            "01-703-1100",
            3.5,
            "AMBUL ECG PLACEMENT",
            13,
            "TREATMENT",
            "2013-03-28",
            "2013-03-28",
            16,
            16,
