{
  "clinicalData": {
    "studyOID": "cdisc.com/CDISCPILOT01",
    "metaDataVersionOID": "MDV.MSGv2.0.SDTMIG.3.3.SDTM.1.7",
    "itemGroupData": {
      "IG.EC": {
        "records": 1590,
        "name": "EC",
        "label": "Exposure as Collected",
        "items": [
          {
            "OID": "ITEMGROUPDATASEQ",
            "name": "ITEMGROUPDATASEQ",
            "label": "Record identifier",
            "type": "integer"
          },
          {
            "OID": "IT.EC.STUDYID",
            "name": "STUDYID",
            "label": "Study Identifier",
            "type": "string",
            "length": 12
          },
          {
            "OID": "IT.EC.DOMAIN",
            "name": "DOMAIN",
            "label": "Domain Abbreviation",
            "type": "string",
            "length": 2
          },
          {
            "OID": "IT.EC.USUBJID",
            "name": "USUBJID",
            "label": "Unique Subject Identifier",
            "type": "string",
            "length": 8
          },
          {
            "OID": "IT.EC.SPDEVID",
            "name": "SPDEVID",
            "label": "Sponsor Device Identifier",
            "type": "string",
            "length": 200
          },
          {
            "OID": "IT.EC.ECSEQ",
            "name": "ECSEQ",
            "label": "Sequence Number",
            "type": "integer",
            "length": 3
          },
          {
            "OID": "IT.EC.ECTRT",
            "name": "ECTRT",
            "label": "Name of Treatment",
            "type": "string",
            "length": 10
          },
          {
            "OID": "IT.EC.ECPRESP",
            "name": "ECPRESP",
            "label": "Pre-Specified",
            "type": "string",
            "length": 1
          },
          {
            "OID": "IT.EC.ECOCCUR",
            "name": "ECOCCUR",
            "label": "Occurrence",
            "type": "string",
            "length": 1
          },
          {
            "OID": "IT.EC.ECDOSE",
            "name": "ECDOSE",
            "label": "Dose",
            "type": "integer",
            "length": 8
          },
          {
            "OID": "IT.EC.ECDOSU",
            "name": "ECDOSU",
            "label": "Dose Units",
            "type": "string",
            "length": 2
          },
          {
            "OID": "IT.EC.ECDOSFRM",
            "name": "ECDOSFRM",
            "label": "Dose Form",
            "type": "string",
            "length": 9
          },
          {
            "OID": "IT.EC.ECDOSFRQ",
            "name": "ECDOSFRQ",
            "label": "Dosing Frequency per Interval",
            "type": "string",
            "length": 2
          },
          {
            "OID": "IT.EC.ECROUTE",
            "name": "ECROUTE",
            "label": "Route of Administration",
            "type": "string",
            "length": 12
          },
          {
            "OID": "IT.EC.ECLOT",
            "name": "ECLOT",
            "label": "Lot Number",
            "type": "string",
            "length": 200
          },
          {
            "OID": "IT.EC.ECPSTRG",
            "name": "ECPSTRG",
            "label": "Pharmaceutical Strength",
            "type": "float",
            "length": 4
          },
          {
            "OID": "IT.EC.ECPSTRGU",
            "name": "ECPSTRGU",
            "label": "Pharmaceutical Strength Units",
            "type": "string",
            "length": 3
          },
          {
            "OID": "IT.EC.EPOCH",
            "name": "EPOCH",
            "label": "Epoch",
            "type": "string",
            "length": 9
          },
          {
            "OID": "IT.EC.ECSTDTC",
            "name": "ECSTDTC",
            "label": "Start Date/Time of Treatment",
            "type": "string"
          },
          {
            "OID": "IT.EC.ECENDTC",
            "name": "ECENDTC",
            "label": "End Date/Time of Treatment",
            "type": "string"
          },
          {
            "OID": "IT.EC.ECSTDY",
            "name": "ECSTDY",
            "label": "Study Day of Start of Treatment",
            "type": "integer",
            "length": 8
          },
          {
            "OID": "IT.EC.ECENDY",
            "name": "ECENDY",
            "label": "Study Day of End of Treatment",
            "type": "integer",
            "length": 8
          }
        ],
        "itemData": [
          [
            1,
            "CDISCPILOT01",
            "EC",
            "CDISC001",
            "DEV0001",
            1,
            "ZANOMALINE",
            "Y",
            "Y",
            5,
            "mL",
            "INJECTION",
            "QD",
            "SUBCUTANEOUS",
            "SDS580-359",
            10.8,
            "g/L",
            "TREATMENT",
            "2012-11-30",
            "2012-11-30",
            1,
            1
          ],
          [
            2,
            "CDISCPILOT01",
            "EC",
            "CDISC001",
            "DEV0001",
            2,
            "ZANOMALINE",
            "Y",
            "Y",
            5,
            "mL",
            "INJECTION",
            "QD",
            "SUBCUTANEOUS",
            "SDS580-359",
            10.8,
            "g/L",
            "TREATMENT",
            "2012-12-01",
            "2012-12-01",
            2,
            2
          ],
          [
            3,
            "CDISCPILOT01",
            "EC",
            "CDISC001",
            "DEV0001",
            3,
            "ZANOMALINE",
            "Y",
            "Y",
            5,
            "mL",
            "INJECTION",
            "QD",
            "SUBCUTANEOUS",
            "SDS580-359",
            10.8,
            "g/L",
            "TREATMENT",
            "2012-12-02",
            "2012-12-02",
            3,
            3
          ],
          [
            4,
            "CDISCPILOT01",
            "EC",
            "CDISC001",
            "DEV0001",
            4,
            "ZANOMALINE",
            "Y",
            "Y",
            5,
            "mL",
            "INJECTION",
            "QD",
            "SUBCUTANEOUS",
            "SDS580-359",
            10.8,
            "g/L",
            "TREATMENT",
            "2012-12-03",
            "2012-12-03",
            4,
            4
          ],
          [
            5,
            "CDISCPILOT01",
            "EC",
            "CDISC001",
            "DEV0001",
            5,
            "ZANOMALINE",
            "Y",
            "Y",
            5,
            "mL",
            "INJECTION",
            "QD",
            "SUBCUTANEOUS",
            "SDS580-359",
            10.8,
            "g/L",
            "TREATMENT",
            "2012-12-04",
            "2012-12-04",
            5,
            5
          ],
          [
            6,
            "CDISCPILOT01",
            "EC",
            "CDISC001",
            "DEV0001",
            6,
            "ZANOMALINE",
            "Y",
            "Y",
            5,
            "mL",
            "INJECTION",
            "QD",
            "SUBCUTANEOUS",
            "SDS580-359",
            10.8,
            "g/L",
            "TREATMENT",
            "2012-12-05",
            "2012-12-05",
            6,
            6
          ],
          [
            7,
            "CDISCPILOT01",
            "EC",
            "CDISC001",
            "DEV0001",
            7,
            "ZANOMALINE",
            "Y",
            "Y",
            5,
            "mL",
            "INJECTION",
            "QD",
            "SUBCUTANEOUS",
            "SDS580-359",
            10.8,
            "g/L",
            "TREATMENT",
            "2012-12-06",
            "2012-12-06",
            7,
            7
          ],
          [
            8,
            "CDISCPILOT01",
            "EC",
            "CDISC001",
            "DEV0001",
            8,
            "ZANOMALINE",
            "Y",
            "Y",
            5,
            "mL",
            "INJECTION",
            "QD",
            "SUBCUTANEOUS",
            "SDS580-359",
            10.8,
            "g/L",
            "TREATMENT",
            "2012-12-07",
            "2012-12-07",
            8,
            8
          ],
          [
            9,
            "CDISCPILOT01",
            "EC",
            "CDISC001",
            "DEV0001",
            9,
            "ZANOMALINE",
            "Y",
            "Y",
            5,
            "mL",
            "INJECTION",
            "QD",
            "SUBCUTANEOUS",
            "SDS580-359",
            10.8,
            "g/L",
            "TREATMENT",
            "2012-12-08",
            "2012-12-08",
            9,
            9
          ],
          [
            10,
            "CDISCPILOT01",
            "EC",
            "CDISC001",
            "DEV0001",
            10,
            "ZANOMALINE",
            "Y",
            "Y",
            5,
            "mL",
            "INJECTION",
            "QD",
            "SUBCUTANEOUS",
            "SDS580-359",
            10.8,
            "g/L",
            "TREATMENT",
            "2012-12-09",
            "2012-12-09",
            10,
            10
          ],
          [
            11,
            "CDISCPILOT01",
            "EC",
            "CDISC001",
            "DEV0001",
            11,
            "ZANOMALINE",
            "Y",
            "Y",
            5,
            "mL",
            "INJECTION",
            "QD",
            "SUBCUTANEOUS",
            "SDS580-359",
            10.8,
            "g/L",
            "TREATMENT",
            "2012-12-10",
            "2012-12-10",
            11,
            11
          ],
          [
            12,
            "CDISCPILOT01",
            "EC",
            "CDISC001",
            "DEV0001",
            12,
            "ZANOMALINE",
            "Y",
            "Y",
            5,
            "mL",
            "INJECTION",
            "QD",
            "SUBCUTANEOUS",
            "SDS580-359",
            10.8,
            "g/L",
            "TREATMENT",
            "2012-12-11",
            "2012-12-11",
            12,
            12
          ],
          [
            13,
            "CDISCPILOT01",
            "EC",
            "CDISC001",
            "DEV0001",
            13,
            "ZANOMALINE",
            "Y",
            "Y",
            5,
            "mL",
            "INJECTION",
            "QD",
            "SUBCUTANEOUS",
            "SDS580-359",
            10.8,
            "g/L",
            "TREATMENT",
            "2012-12-12",
            "2012-12-12",
            13,
            13
          ],
          [
            14,
            "CDISCPILOT01",
            "EC",
            "CDISC001",
            "DEV0001",
            14,
            "ZANOMALINE",
            "Y",
            "Y",
            5,
            "mL",
            "INJECTION",
            "QD",
            "SUBCUTANEOUS",
            "SDS580-359",
            10.8,
            "g/L",
            "TREATMENT",
            "2012-12-13",
            "2012-12-13",
            14,
            14
          ],
          [
            15,
            "CDISCPILOT01",
            "EC",
            "CDISC001",
            "DEV0001",
            15,
            "ZANOMALINE",
            "Y",
            "Y",
            5,
            "mL",
            "INJECTION",
            "QD",
            "SUBCUTANEOUS",
            "SDS580-359",
            10.8,
            "g/L",
            "TREATMENT",
            "2012-12-14",
            "2012-12-14",
            15,
            15
          ],
          [
            16,
            "CDISCPILOT01",
            "EC",
            "CDISC001",
            "DEV0001",
            16,
            "ZANOMALINE",
            "Y",
            "Y",
            5,
            "mL",
            "INJECTION",
            "QD",
            "SUBCUTANEOUS",
            "SDS580-359",
            10.8,
            "g/L",
            "TREATMENT",
            "2012-12-15",
            "2012-12-15",
            16,
            16
          ],
          [
            17,
            "CDISCPILOT01",
            "EC",
            "CDISC001",
            "DEV0001",
            17,
            "ZANOMALINE",
            "Y",
            "Y",
            5,
            "mL",
            "INJECTION",
            "QD",
            "SUBCUTANEOUS",
            "SDS580-359",
            10.8,
            "g/L",
            "TREATMENT",
            "2012-12-16",
            "2012-12-16",
            17,
            17
          ],
          [
            18,
            "CDISCPILOT01",
            "EC",
            "CDISC001",
            "DEV0001",
            18,
            "ZANOMALINE",
            "Y",
            "Y",
            5,
            "mL",
            "INJECTION",
            "QD",
            "SUBCUTANEOUS",
            "SDS580-359",
            10.8,
            "g/L",
            "TREATMENT",
            "2012-12-17",
            "2012-12-17",
            18,
            18
          ],
          [
            19,
            "CDISCPILOT01",
            "EC",
            "CDISC001",
            "DEV0001",
            19,
            "ZANOMALINE",
            "Y",
            "Y",
            5,
            "mL",
            "INJECTION",
            "QD",
            "SUBCUTANEOUS",
            "SDS580-359",
            10.8,
            "g/L",
            "TREATMENT",
            "2012-12-18",
            "2012-12-18",
            19,
            19
          ],
          [
            20,
            "CDISCPILOT01",
            "EC",
            "CDISC001",
            "DEV0001",
            20,
            "ZANOMALINE",
            "Y",
            "Y",
            5,
            "mL",
            "INJECTION",
            "QD",
            "SUBCUTANEOUS",
            "SDS580-359",
            10.8,
            "g/L",
            "TREATMENT",
            "2012-12-19",
            "2012-12-19",
            20,
            20
          ],
          [
            21,
            "CDISCPILOT01",
            "EC",
            "CDISC001",
            "DEV0001",
            21,
            "ZANOMALINE",
            "Y",
            "Y",
            5,
            "mL",
            "INJECTION",
            "QD",
            "SUBCUTANEOUS",
            "SDS580-359",
            10.8,
            "g/L",
            "TREATMENT",
            "2012-12-20",
            "2012-12-20",
            21,
            21
          ],
          [
            22,
            "CDISCPILOT01",
            "EC",
            "CDISC001",
            "DEV0001",
            22,
            "ZANOMALINE",
            "Y",
            "Y",
            5,
            "mL",
            "INJECTION",
            "QD",
            "SUBCUTANEOUS",
            "SDS580-359",
            10.8,
            "g/L",
            "TREATMENT",
            "2012-12-21",
            "2012-12-21",
            22,
            22
          ],
          [
            23,
            "CDISCPILOT01",
            "EC",
            "CDISC001",
            "DEV0001",
            23,
            "ZANOMALINE",
            "Y",
            "Y",
            5,
            "mL",
            "INJECTION",
            "QD",
            "SUBCUTANEOUS",
            "SDS580-359",
            10.8,
            "g/L",
            "TREATMENT",
            "2012-12-22",
            "2012-12-22",
            23,
            23
          ],
          [
            24,
            "CDISCPILOT01",
            "EC",
            "CDISC001",
            "DEV0001",
            24,
            "ZANOMALINE",
            "Y",
            "Y",
            5,
            "mL",
            "INJECTION",
            "QD",
            "SUBCUTANEOUS",
            "SDS580-359",
            10.8,
            "g/L",
            "TREATMENT",
            "2012-12-23",
            "2012-12-23",
            24,
            24
          ],
          [
            25,
            "CDISCPILOT01",
            "EC",
            "CDISC001",
            "DEV0001",
            25,
            "ZANOMALINE",
            "Y",
            "Y",
            5,
            "mL",
            "INJECTION",
            "QD",
            "SUBCUTANEOUS",
            "SDS580-359",
            10.8,
            "g/L",
            "TREATMENT",
            "2012-12-24",
            "2012-12-24",
            25,
            25
          ],
          [
            26,
            "CDISCPILOT01",
            "EC",
            "CDISC001",
            "DEV0001",
            26,
            "ZANOMALINE",
            "Y",
            "Y",
            5,
            "mL",
            "INJECTION",
            "QD",
            "SUBCUTANEOUS",
            "SDS580-359",
            10.8,
            "g/L",
            "TREATMENT",
            "2012-12-25",
            "2012-12-25",
            26,
            26
          ],
          [
            27,
            "CDISCPILOT01",
            "EC",
            "CDISC001",
            "DEV0001",
            27,
            "ZANOMALINE",
            "Y",
            "Y",
            5,
            "mL",
            "INJECTION",
            "QD",
            "SUBCUTANEOUS",
            "SDS580-359",
            10.8,
            "g/L",
            "TREATMENT",
            "2012-12-26",
            "2012-12-26",
            27,
            27
          ],
          [
            28,
            "CDISCPILOT01",
            "EC",
            "CDISC001",
            "DEV0001",
            28,
            "ZANOMALINE",
            "Y",
            "Y",
            5,
            "mL",
            "INJECTION",
            "QD",
            "SUBCUTANEOUS",
            "SDS580-359",
            10.8,
            "g/L",
            "TREATMENT",
            "2012-12-27",
            "2012-12-27",
            28,
            28
          ],
          [
            29,
            "CDISCPILOT01",
            "EC",
            "CDISC001",
            "DEV0001",
            29,
            "ZANOMALINE",
            "Y",
            "Y",
            5,
            "mL",
            "INJECTION",
            "QD",
            "SUBCUTANEOUS",
            "SDS580-359",
            10.8,
            "g/L",
            "TREATMENT",
            "2012-12-28",
            "2012-12-28",
            29,
            29
          ],
          [
            30,
            "CDISCPILOT01",
            "EC",
            "CDISC001",
            "DEV0001",
            30,
            "ZANOMALINE",
            "Y",
            "Y",
            5,
            "mL",
            "INJECTION",
            "QD",
            "SUBCUTANEOUS",
            "SDS580-359",
            10.8,
            "g/L",
            "TREATMENT",
            "2012-12-29",
            "2012-12-29",
            30,
            30
          ],
          [
            31,
            "CDISCPILOT01",
            "EC",
            "CDISC001",
            "DEV0001",
            31,
            "ZANOMALINE",
            "Y",
            "Y",
            5,
            "mL",
            "INJECTION",
            "QD",
            "SUBCUTANEOUS",
            "SDS580-359",
            10.8,
            "g/L",
            "TREATMENT",
            "2012-12-30",
            "2012-12-30",
            31,
            31
          ],
          [
            32,
            "CDISCPILOT01",
            "EC",
            "CDISC001",
            "DEV0001",
            32,
            "ZANOMALINE",
            "Y",
            "Y",
            5,
            "mL",
            "INJECTION",
            "QD",
            "SUBCUTANEOUS",
            "SDS580-359",
            10.8,
            "g/L",
            "TREATMENT",
            "2012-12-31",
            "2012-12-31",
            32,
            32
          ],
          [
            33,
            "CDISCPILOT01",
            "EC",
            "CDISC001",
            "DEV0001",
            33,
            "ZANOMALINE",
            "Y",
            "Y",
            5,
            "mL",
            "INJECTION",
            "QD",
            "SUBCUTANEOUS",
            "SDS580-359",
            10.8,
            "g/L",
            "TREATMENT",
            "2013-01-01",
            "2013-01-01",
            33,
            33
          ],
          [
            34,
            "CDISCPILOT01",
            "EC",
            "CDISC001",
            "DEV0001",
            34,
            "ZANOMALINE",
            "Y",
            "Y",
            5,
            "mL",
            "INJECTION",
            "QD",
            "SUBCUTANEOUS",
            "SDS580-359",
            10.8,
            "g/L",
            "TREATMENT",
            "2013-01-02",
            "2013-01-02",
            34,
            34
          ],
          [
            35,
            "CDISCPILOT01",
            "EC",
            "CDISC001",
            "DEV0001",
            35,
            "ZANOMALINE",
            "Y",
            "Y",
            5,
            "mL",
            "INJECTION",
            "QD",
            "SUBCUTANEOUS",
            "SDS580-359",
            10.8,
            "g/L",
            "TREATMENT",
            "2013-01-03",
            "2013-01-03",
            35,
            35
          ],
          [
            36,
            "CDISCPILOT01",
            "EC",
            "CDISC001",
            "DEV0001",
            36,
            "ZANOMALINE",
            "Y",
            "Y",
            5,
            "mL",
            "INJECTION",
            "QD",
            "SUBCUTANEOUS",
            "SDS580-359",
            10.8,
            "g/L",
            "TREATMENT",
            "2013-01-04",
            "2013-01-04",
            36,
            36
          ],
          [
            37,
            "CDISCPILOT01",
            "EC",
            "CDISC001",
            "DEV0001",
            37,
            "ZANOMALINE",
            "Y",
            "Y",
            5,
            "mL",
            "INJECTION",
            "QD",
            "SUBCUTANEOUS",
            "SDS580-359",
            10.8,
            "g/L",
            "TREATMENT",
            "2013-01-05",
            "2013-01-05",
            37,
            37
          ],
          [
            38,
            "CDISCPILOT01",
            "EC",
            "CDISC001",
            "DEV0001",
            38,
            "ZANOMALINE",
            "Y",
            "Y",
            5,
            "mL",
            "INJECTION",
            "QD",
            "SUBCUTANEOUS",
            "SDS580-359",
            10.8,
            "g/L",
            "TREATMENT",
            "2013-01-06",
            "2013-01-06",
            38,
            38
          ],
          [
            39,
            "CDISCPILOT01",
            "EC",
            "CDISC001",
            "DEV0001",
            39,
            "ZANOMALINE",
            "Y",
            "Y",
            5,
            "mL",
            "INJECTION",
            "QD",
            "SUBCUTANEOUS",
            "SDS580-359",
            10.8,
            "g/L",
            "TREATMENT",
            "2013-01-07",
            "2013-01-07",
            39,
            39
          ],
          [
            40,
            "CDISCPILOT01",
            "EC",
            "CDISC001",
            "DEV0001",
            40,
            "ZANOMALINE",
            "Y",
            "Y",
            5,
            "mL",
            "INJECTION",
            "QD",
            "SUBCUTANEOUS",
            "SDS580-359",
            10.8,
            "g/L",
            "TREATMENT",
            "2013-01-08",
            "2013-01-08",
            40,
            40
          ],
          [
            41,
            "CDISCPILOT01",
            "EC",
            "CDISC001",
            "DEV0001",
            41,
            "ZANOMALINE",
            "Y",
            "Y",
            5,
            "mL",
            "INJECTION",
            "QD",
            "SUBCUTANEOUS",
            "SDS580-359",
            10.8,
            "g/L",
            "TREATMENT",
            "2013-01-09",
            "2013-01-09",
            41,
            41
          ],
          [
            42,
            "CDISCPILOT01",
            "EC",
            "CDISC001",
            "DEV0001",
            42,
            "ZANOMALINE",
            "Y",
            "Y",
            5,
            "mL",
            "INJECTION",
            "QD",
            "SUBCUTANEOUS",
            "SDS580-359",
            10.8,
            "g/L",
            "TREATMENT",
            "2013-01-10",
            "2013-01-10",
            42,
            42
          ],
          [
            43,
            "CDISCPILOT01",
            "EC",
            "CDISC001",
            "DEV0001",
            43,
            "ZANOMALINE",
            "Y",
            "Y",
            5,
            "mL",
            "INJECTION",
            "QD",
            "SUBCUTANEOUS",
            "SDS580-359",
            10.8,
            "g/L",
            "TREATMENT",
            "2013-01-11",
            "2013-01-11",
            43,
            43
          ],
          [
            44,
            "CDISCPILOT01",
            "EC",
            "CDISC001",
            "DEV0001",
            44,
            "ZANOMALINE",
            "Y",
            "Y",
            5,
            "mL",
            "INJECTION",
            "QD",
            "SUBCUTANEOUS",
            "SDS580-359",
            10.8,
            "g/L",
            "TREATMENT",
            "2013-01-12",
            "2013-01-12",
            44,
            44
          ],
          [
            45,
            "CDISCPILOT01",
            "EC",
            "CDISC001",
            "DEV0001",
            45,
            "ZANOMALINE",
            "Y",
            "Y",
            5,
            "mL",
            "INJECTION",
            "QD",
            "SUBCUTANEOUS",
            "SDS580-359",
            10.8,
            "g/L",
            "TREATMENT",
            "2013-01-13",
            "2013-01-13",
            45,
            45
          ],
          [
            46,
            "CDISCPILOT01",
            "EC",
            "CDISC001",
            "DEV0001",
            46,
            "ZANOMALINE",
            "Y",
            "Y",
            5,
            "mL",
            "INJECTION",
            "QD",
            "SUBCUTANEOUS",
            "SDS580-359",
            10.8,
            "g/L",
            "TREATMENT",
            "2013-01-14",
            "2013-01-14",
            46,
            46
          ],
          [
            47,
            "CDISCPILOT01",
            "EC",
            "CDISC001",
            "DEV0001",
            47,
            "ZANOMALINE",
            "Y",
            "Y",
            5,
            "mL",
            "INJECTION",
            "QD",
            "SUBCUTANEOUS",
            "SDS580-359",
            10.8,
            "g/L",
            "TREATMENT",
            "2013-01-15",
            "2013-01-15",
            47,
            47
          ],
          [
            48,
            "CDISCPILOT01",
            "EC",
            "CDISC001",
            "DEV0001",
            48,
            "ZANOMALINE",
            "Y",
            "Y",
            5,
            "mL",
            "INJECTION",
            "QD",
            "SUBCUTANEOUS",
            "SDS580-359",
            10.8,
            "g/L",
            "TREATMENT",
            "2013-01-16",
            "2013-01-16",
            48,
            48
          ],
          [
            49,
            "CDISCPILOT01",
            "EC",
            "CDISC001",
            "DEV0001",
            49,
            "ZANOMALINE",
            "Y",
            "Y",
            5,
            "mL",
            "INJECTION",
            "QD",
            "SUBCUTANEOUS",
            "SDS580-359",
            10.8,
            "g/L",
            "TREATMENT",
            "2013-01-17",
            "2013-01-17",
            49,
            49
          ],
          [
            50,
            "CDISCPILOT01",
            "EC",
            "CDISC001",
            "DEV0001",
            50,
            "ZANOMALINE",
            "Y",
            "Y",
            5,
            "mL",
            "INJECTION",
            "QD",
            "SUBCUTANEOUS",
            "SDS580-359",
            10.8,
            "g/L",
            "TREATMENT",
            "2013-01-18",
            "2013-01-18",
            50,
            50
          ],
          [
            51,
            "CDISCPILOT01",
            "EC",
            "CDISC001",
            "DEV0001",
            51,
            "ZANOMALINE",
            "Y",
            "Y",
            5,
            "mL",
            "INJECTION",
            "QD",
            "SUBCUTANEOUS",
            "SDS580-359",
            10.8,
            "g/L",
            "TREATMENT",
            "2013-01-19",
            "2013-01-19",
            51,
            51
          ],
          [
            52,
            "CDISCPILOT01",
            "EC",
            "CDISC001",
            "DEV0001",
            52,
            "ZANOMALINE",
            "Y",
            "Y",
            5,
            "mL",
            "INJECTION",
            "QD",
            "SUBCUTANEOUS",
            "SDS580-359",
            10.8,
            "g/L",
            "TREATMENT",
            "2013-01-20",
            "2013-01-20",
            52,
            52
          ],
          [
            53,
            "CDISCPILOT01",
            "EC",
            "CDISC001",
            "DEV0001",
            53,
            "ZANOMALINE",
            "Y",
            "Y",
            5,
            "mL",
            "INJECTION",
            "QD",
            "SUBCUTANEOUS",
            "SDS580-359",
            10.8,
            "g/L",
            "TREATMENT",
            "2013-01-21",
            "2013-01-21",
            53,
            53
          ],
          [
            54,
            "CDISCPILOT01",
            "EC",
            "CDISC001",
            "DEV0001",
            54,
            "ZANOMALINE",
            "Y",
            "Y",
            5,
            "mL",
            "INJECTION",
            "QD",
            "SUBCUTANEOUS",
            "SDS580-359",
            10.8,
            "g/L",
            "TREATMENT",
            "2013-01-22",
            "2013-01-22",
            54,
            54
          ],
          [
            55,
            "CDISCPILOT01",
            "EC",
            "CDISC001",
            "DEV0001",
            55,
            "ZANOMALINE",
            "Y",
            "Y",
            5,
            "mL",
            "INJECTION",
            "QD",
            "SUBCUTANEOUS",
            "SDS580-359",
            10.8,
            "g/L",
            "TREATMENT",
            "2013-01-23",
            "2013-01-23",
            55,
            55
          ],
          [
            56,
            "CDISCPILOT01",
            "EC",
            "CDISC002",
            "DEV0002",
            1,
            "ZANOMALINE",
            "Y",
            "Y",
            5,
            "mL",
            "INJECTION",
            "QD",
            "SUBCUTANEOUS",
            "SDS580-359",
            10.8,
            "g/L",
            "TREATMENT",
            "2012-11-15",
            "2012-11-15",
            1,
            1
          ],
          [
            57,
            "CDISCPILOT01",
            "EC",
            "CDISC002",
            "DEV0002",
            2,
            "ZANOMALINE",
            "Y",
            "Y",
            5,
            "mL",
            "INJECTION",
            "QD",
            "SUBCUTANEOUS",
            "SDS580-359",
            10.8,
            "g/L",
            "TREATMENT",
            "2012-11-16",
            "2012-11-16",
            2,
            2
          ],
          [
            58,
            "CDISCPILOT01",
            "EC",
            "CDISC002",
            "DEV0002",
            3,
            "ZANOMALINE",
            "Y",
            "Y",
            5,
            "mL",
            "INJECTION",
            "QD",
            "SUBCUTANEOUS",
            "SDS580-359",
            10.8,
            "g/L",
            "TREATMENT",
            "2012-11-17",
            "2012-11-17",
            3,
            3
          ],
          [
            59,
            "CDISCPILOT01",
            "EC",
            "CDISC002",
            "DEV0002",
            4,
            "ZANOMALINE",
            "Y",
            "Y",
            5,
            "mL",
            "INJECTION",
            "QD",
            "SUBCUTANEOUS",
            "SDS580-359",
            10.8,
            "g/L",
            "TREATMENT",
            "2012-11-18",
            "2012-11-18",
            4,
            4
          ],
          [
            60,
            "CDISCPILOT01",
            "EC",
            "CDISC002",
            "DEV0002",
            5,
            "ZANOMALINE",
            "Y",
            "Y",
            5,
            "mL",
            "INJECTION",
            "QD",
            "SUBCUTANEOUS",
            "SDS580-359",
            10.8,
            "g/L",
            "TREATMENT",
            "2012-11-19",
            "2012-11-19",
            5,
            5
          ],
          [
            61,
            "CDISCPILOT01",
            "EC",
            "CDISC002",
            "DEV0002",
            6,
            "ZANOMALINE",
            "Y",
            "Y",
            5,
            "mL",
            "INJECTION",
            "QD",
            "SUBCUTANEOUS",
            "SDS580-359",
            10.8,
            "g/L",
            "TREATMENT",
            "2012-11-20",
            "2012-11-20",
            6,
            6
          ],
          [
            62,
            "CDISCPILOT01",
            "EC",
            "CDISC002",
            "DEV0002",
            7,
            "ZANOMALINE",
            "Y",
            "Y",
            5,
            "mL",
            "INJECTION",
            "QD",
            "SUBCUTANEOUS",
            "SDS580-359",
            10.8,
            "g/L",
            "TREATMENT",
            "2012-11-21",
            "2012-11-21",
            7,
            7
          ],
          [
            63,
            "CDISCPILOT01",
            "EC",
            "CDISC002",
            "DEV0002",
            8,
            "ZANOMALINE",
            "Y",
            "Y",
            5,
            "mL",
            "INJECTION",
            "QD",
            "SUBCUTANEOUS",
            "SDS580-359",
            10.8,
            "g/L",
            "TREATMENT",
            "2012-11-22",
            "2012-11-22",
            8,
            8
          ],
          [
            64,
            "CDISCPILOT01",
            "EC",
            "CDISC002",
            "DEV0002",
            9,
            "ZANOMALINE",
            "Y",
            "Y",
            5,
            "mL",
            "INJECTION",
            "QD",
            "SUBCUTANEOUS",
            "SDS580-359",
            10.8,
            "g/L",
            "TREATMENT",
            "2012-11-23",
            "2012-11-23",
            9,
            9
          ],
          [
            65,
            "CDISCPILOT01",
            "EC",
            "CDISC002",
            "DEV0002",
            10,
            "ZANOMALINE",
            "Y",
            "Y",
            5,
            "mL",
            "INJECTION",
            "QD",
            "SUBCUTANEOUS",
            "SDS580-359",
            10.8,
            "g/L",
            "TREATMENT",
            "2012-11-24",
            "2012-11-24",
            10,
            10
          ],
          [
            66,
            "CDISCPILOT01",
            "EC",
            "CDISC002",
            "DEV0002",
            11,
            "ZANOMALINE",
            "Y",
            "Y",
            5,
            "mL",
            "INJECTION",
            "QD",
            "SUBCUTANEOUS",
            "SDS580-359",
            10.8,
            "g/L",
            "TREATMENT",
            "2012-11-25",
            "2012-11-25",
            11,
            11
          ],
          [
            67,
            "CDISCPILOT01",
            "EC",
            "CDISC002",
            "DEV0002",
            12,
            "ZANOMALINE",
            "Y",
            "Y",
            5,
            "mL",
            "INJECTION",
            "QD",
            "SUBCUTANEOUS",
            "SDS580-359",
            10.8,
            "g/L",
            "TREATMENT",
            "2012-11-26",
            "2012-11-26",
            12,
            12
          ],
          [
            68,
            "CDISCPILOT01",
            "EC",
            "CDISC002",
            "DEV0002",
            13,
            "ZANOMALINE",
            "Y",
            "Y",
            5,
            "mL",
            "INJECTION",
            "QD",
            "SUBCUTANEOUS",
            "SDS580-359",
            10.8,
            "g/L",
            "TREATMENT",
            "2012-11-27",
            "2012-11-27",
            13,
            13
          ],
          [
            69,
            "CDISCPILOT01",
            "EC",
            "CDISC002",
            "DEV0002",
            14,
            "ZANOMALINE",
            "Y",
            "Y",
            5,
            "mL",
            "INJECTION",
            "QD",
            "SUBCUTANEOUS",
            "SDS580-359",
            10.8,
            "g/L",
            "TREATMENT",
            "2012-11-28",
            "2012-11-28",
            14,
            14
          ],
          [
            70,
            "CDISCPILOT01",
            "EC",
            "CDISC002",
            "DEV0002",
            15,
            "ZANOMALINE",
            "Y",
            "Y",
            5,
            "mL",
            "INJECTION",
            "QD",
            "SUBCUTANEOUS",
            "SDS580-359",
            10.8,
            "g/L",
            "TREATMENT",
            "2012-11-29",
            "2012-11-29",
            15,
            15
          ],
          [
            71,
            "CDISCPILOT01",
            "EC",
            "CDISC002",
            "DEV0002",
            16,
            "ZANOMALINE",
            "Y",
            "Y",
            5,
            "mL",
            "INJECTION",
            "QD",
            "SUBCUTANEOUS",
            "SDS580-359",
            10.8,
            "g/L",
            "TREATMENT",
            "2012-11-30",
            "2012-11-30",
            16,
            16
          ],
          [
            72,
            "CDISCPILOT01",
            "EC",
            "CDISC002",
            "DEV0002",
            17,
            "ZANOMALINE",
            "Y",
            "Y",
            5,
            "mL",
            "INJECTION",
            "QD",
            "SUBCUTANEOUS",
            "SDS580-359",
            10.8,
            "g/L",
            "TREATMENT",
            "2012-12-01",
            "2012-12-01",
            17,
            17
          ],
          [
            73,
            "CDISCPILOT01",
            "EC",
            "CDISC002",
            "DEV0002",
            18,
            "ZANOMALINE",
            "Y",
            "Y",
            5,
            "mL",
            "INJECTION",
            "QD",
            "SUBCUTANEOUS",
            "SDS580-359",
            10.8,
            "g/L",
            "TREATMENT",
            "2012-12-02",
            "2012-12-02",
            18,
            18
          ],
          [
            74,
            "CDISCPILOT01",
            "EC",
            "CDISC002",
            "DEV0002",
            19,
            "ZANOMALINE",
            "Y",
            "Y",
            5,
            "mL",
            "INJECTION",
            "QD",
            "SUBCUTANEOUS",
            "SDS580-359",
            10.8,
            "g/L",
            "TREATMENT",
            "2012-12-03",
            "2012-12-03",
            19,
            19
          ],
          [
            75,
            "CDISCPILOT01",
            "EC",
            "CDISC002",
            "DEV0002",
            20,
            "ZANOMALINE",
            "Y",
            "Y",
            5,
            "mL",
            "INJECTION",
            "QD",
            "SUBCUTANEOUS",
            "SDS580-359",
            10.8,
            "g/L",
            "TREATMENT",
            "2012-12-04",
            "2012-12-04",
            20,
            20
          ],
          [
            76,
            "CDISCPILOT01",
            "EC",
            "CDISC002",
            "DEV0002",
            21,
            "ZANOMALINE",
            "Y",
            "Y",
            5,
            "mL",
            "INJECTION",
            "QD",
            "SUBCUTANEOUS",
            "SDS580-359",
            10.8,
            "g/L",
            "TREATMENT",
            "2012-12-05",
            "2012-12-05",
            21,
            21
          ],
          [
            77,
            "CDISCPILOT01",
            "EC",
            "CDISC002",
            "DEV0002",
            22,
            "ZANOMALINE",
            "Y",
            "Y",
            5,
            "mL",
            "INJECTION",
            "QD",
            "SUBCUTANEOUS",
            "SDS580-359",
            10.8,
            "g/L",
            "TREATMENT",
            "2012-12-06",
            "2012-12-06",
            22,
            22
          ],
          [
            78,
            "CDISCPILOT01",
            "EC",
            "CDISC002",
            "DEV0002",
            23,
            "ZANOMALINE",
            "Y",
            "Y",
            5,
            "mL",
            "INJECTION",
            "QD",
            "SUBCUTANEOUS",
            "SDS580-359",
            10.8,
            "g/L",
            "TREATMENT",
            "2012-12-07",
            "2012-12-07",
            23,
            23
          ],
          [
            79,
            "CDISCPILOT01",
            "EC",
            "CDISC002",
            "DEV0002",
            24,
            "ZANOMALINE",
            "Y",
            "Y",
            5,
            "mL",
            "INJECTION",
            "QD",
            "SUBCUTANEOUS",
            "SDS580-359",
            10.8,
            "g/L",
            "TREATMENT",
            "2012-12-08",
            "2012-12-08",
            24,
            24
          ],
          [
            80,
            "CDISCPILOT01",
            "EC",
            "CDISC002",
            "DEV0002",
            25,
            "ZANOMALINE",
            "Y",
            "Y",
            5,
            "mL",
            "INJECTION",
            "QD",
            "SUBCUTANEOUS",
            "SDS580-359",
            10.8,
            "g/L",
            "TREATMENT",
            "2012-12-09",
            "2012-12-09",
            25,
            25
          ],
          [
            81,
            "CDISCPILOT01",
            "EC",
            "CDISC002",
            "DEV0002",
            26,
            "ZANOMALINE",
            "Y",
            "Y",
            5,
            "mL",
            "INJECTION",
            "QD",
            "SUBCUTANEOUS",
            "SDS580-359",
            10.8,
            "g/L",
            "TREATMENT",
            "2012-12-10",
            "2012-12-10",
            26,
            26
          ],
          [
            82,
            "CDISCPILOT01",
            "EC",
            "CDISC002",
            "DEV0002",
            27,
            "ZANOMALINE",
            "Y",
            "Y",
            5,
            "mL",
            "INJECTION",
            "QD",
            "SUBCUTANEOUS",
            "SDS580-359",
            10.8,
            "g/L",
            "TREATMENT",
            "2012-12-11",
            "2012-12-11",
            27,
            27
          ],
          [
            83,
            "CDISCPILOT01",
            "EC",
            "CDISC002",
            "DEV0002",
            28,
            "ZANOMALINE",
            "Y",
            "Y",
            5,
            "mL",
            "INJECTION",
            "QD",
            "SUBCUTANEOUS",
            "SDS580-359",
            10.8,
            "g/L",
            "TREATMENT",
            "2012-12-12",
            "2012-12-12",
            28,
            28
          ],
          [
            84,
            "CDISCPILOT01",
            "EC",
            "CDISC002",
            "DEV0002",
            29,
            "ZANOMALINE",
            "Y",
            "Y",
            5,
            "mL",
            "INJECTION",
            "QD",
            "SUBCUTANEOUS",
            "SDS580-359",
            10.8,
            "g/L",
            "TREATMENT",
            "2012-12-13",
            "2012-12-13",
            29,
            29
          ],
          [
            85,
            "CDISCPILOT01",
            "EC",
            "CDISC002",
            "DEV0002",
            30,
            "ZANOMALINE",
            "Y",
            "Y",
            5,
            "mL",
            "INJECTION",
            "QD",
            "SUBCUTANEOUS",
            "SDS580-359",
            10.8,
            "g/L",
            "TREATMENT",
            "2012-12-14",
            "2012-12-14",
            30,
            30
          ],
          [
            86,
            "CDISCPILOT01",
            "EC",
            "CDISC002",
            "DEV0002",
            31,
            "ZANOMALINE",
            "Y",
            "Y",
            5,
            "mL",
            "INJECTION",
            "QD",
            "SUBCUTANEOUS",
            "SDS580-359",
            10.8,
            "g/L",
            "TREATMENT",
            "2012-12-15",
            "2012-12-15",
            31,
            31
          ],
          [
            87,
            "CDISCPILOT01",
            "EC",
            "CDISC002",
            "DEV0002",
            32,
            "ZANOMALINE",
            "Y",
            "Y",
            5,
            "mL",
            "INJECTION",
            "QD",
            "SUBCUTANEOUS",
            "SDS580-359",
            10.8,
            "g/L",
            "TREATMENT",
            "2012-12-16",
            "2012-12-16",
            32,
            32
          ],
          [
            88,
            "CDISCPILOT01",
            "EC",
            "CDISC002",
            "DEV0002",
            33,
            "ZANOMALINE",
            "Y",
            "Y",
            5,
            "mL",
            "INJECTION",
            "QD",
            "SUBCUTANEOUS",
            "SDS580-359",
            10.8,
            "g/L",
            "TREATMENT",
            "2012-12-17",
            "2012-12-17",
            33,
            33
          ],
          [
            89,
            "CDISCPILOT01",
            "EC",
            "CDISC002",
            "DEV0002",
            34,
            "ZANOMALINE",
            "Y",
            "Y",
            5,
            "mL",
            "INJECTION",
            "QD",
            "SUBCUTANEOUS",
            "SDS580-359",
            10.8,
            "g/L",
            "TREATMENT",
            "2012-12-18",
            "2012-12-18",
            34,
            34
          ],
          [
            90,
            "CDISCPILOT01",
            "EC",
            "CDISC002",
            "DEV0002",
            35,
            "ZANOMALINE",
            "Y",
            "Y",
            5,
            "mL",
            "INJECTION",
            "QD",
            "SUBCUTANEOUS",
            "SDS580-359",
            10.8,
            "g/L",
            "TREATMENT",
            "2012-12-19",
            "2012-12-19",
            35,
            35
          ],
          [
            91,
            "CDISCPILOT01",
            "EC",
            "CDISC002",
            "DEV0002",
            36,
            "ZANOMALINE",
            "Y",
            "Y",
            5,
            "mL",
            "INJECTION",
            "QD",
            "SUBCUTANEOUS",
            "SDS580-359",
            10.8,
            "g/L",
            "TREATMENT",
            "2012-12-20",
            "2012-12-20",
            36,
            36
          ],
          [
            92,
            "CDISCPILOT01",
            "EC",
            "CDISC002",
            "DEV0002",
            37,
            "ZANOMALINE",
            "Y",
            "Y",
            5,
            "mL",
            "INJECTION",
            "QD",
            "SUBCUTANEOUS",
            "SDS580-359",
            10.8,
            "g/L",
            "TREATMENT",
            "2012-12-21",
            "2012-12-21",
            37,
            37
          ],
          [
            93,
            "CDISCPILOT01",
            "EC",
            "CDISC002",
            "DEV0002",
            38,
            "ZANOMALINE",
            "Y",
            "Y",
            5,
            "mL",
            "INJECTION",
            "QD",
            "SUBCUTANEOUS",
            "SDS580-359",
            10.8,
            "g/L",
            "TREATMENT",
            "2012-12-22",
            "2012-12-22",
            38,
            38
          ],
          [
            94,
            "CDISCPILOT01",
            "EC",
            "CDISC002",
            "DEV0002",
            39,
            "ZANOMALINE",
            "Y",
            "Y",
            5,
            "mL",
            "INJECTION",
            "QD",
            "SUBCUTANEOUS",
            "SDS580-359",
            10.8,
            "g/L",
            "TREATMENT",
            "2012-12-23",
            "2012-12-23",
            39,
            39
          ],
          [
            95,
            "CDISCPILOT01",
            "EC",
            "CDISC002",
            "DEV0002",
            40,
            "ZANOMALINE",
            "Y",
            "Y",
            5,
            "mL",
            "INJECTION",
            "QD",
            "SUBCUTANEOUS",
            "SDS580-359",
            10.8,
            "g/L",
            "TREATMENT",
            "2012-12-24",
            "2012-12-24",
            40,
            40
          ],
          [
            96,
            "CDISCPILOT01",
            "EC",
            "CDISC002",
            "DEV0002",
            41,
            "ZANOMALINE",
            "Y",
            "Y",
            5,
            "mL",
            "INJECTION",
            "QD",
            "SUBCUTANEOUS",
            "SDS580-359",
            10.8,
            "g/L",
            "TREATMENT",
            "2012-12-25",
            "2012-12-25",
            41,
            41
          ],
          [
            97,
            "CDISCPILOT01",
            "EC",
            "CDISC002",
            "DEV0002",
            42,
            "ZANOMALINE",
            "Y",
            "Y",
            5,
            "mL",
            "INJECTION",
            "QD",
            "SUBCUTANEOUS",
            "SDS580-359",
            10.8,
            "g/L",
            "TREATMENT",
            "2012-12-26",
            "2012-12-26",
            42,
            42
          ],
          [
            98,
            "CDISCPILOT01",
            "EC",
            "CDISC002",
            "DEV0002",
            43,
            "ZANOMALINE",
            "Y",
            "Y",
            5,
            "mL",
            "INJECTION",
            "QD",
            "SUBCUTANEOUS",
            "SDS580-359",
            10.8,
            "g/L",
            "TREATMENT",
            "2012-12-27",
            "2012-12-27",
            43,
            43
          ],
          [
            99,
            "CDISCPILOT01",
            "EC",
            "CDISC002",
            "DEV0002",
            44,
            "ZANOMALINE",
            "Y",
            "Y",
            5,
            "mL",
            "INJECTION",
            "QD",
            "SUBCUTANEOUS",
            "SDS580-359",
            10.8,
            "g/L",
            "TREATMENT",
            "2012-12-28",
            "2012-12-28",
            44,
            44
          ],
          [
            100,
            "CDISCPILOT01",
            "EC",
            "CDISC002",
            "DEV0002",
            45,
            "ZANOMALINE",
            "Y",
            "Y",
            5,
            "mL",
            "INJECTION",
            "QD",
            "SUBCUTANEOUS",
            "SDS580-359",
            10.8,
            "g/L",
            "TREATMENT",
            "2012-12-29",
            "2012-12-29",
            45,
            45
          ],
          [
            101,
            "CDISCPILOT01",
            "EC",
            "CDISC002",
            "DEV0002",
            46,
            "ZANOMALINE",
            "Y",
            "Y",
            5,
            "mL",
            "INJECTION",
            "QD",
            "SUBCUTANEOUS",
            "SDS580-359",
            10.8,
            "g/L",
            "TREATMENT",
            "2012-12-30",
            "2012-12-30",
            46,
            46
          ],
          [
            102,
            "CDISCPILOT01",
            "EC",
            "CDISC002",
            "DEV0002",
            47,
            "ZANOMALINE",
            "Y",
            "Y",
            5,
            "mL",
            "INJECTION",
            "QD",
            "SUBCUTANEOUS",
            "SDS580-359",
            10.8,
            "g/L",
            "TREATMENT",
            "2012-12-31",
            "2012-12-31",
            47,
            47
          ],
          [
            103,
            "CDISCPILOT01",
            "EC",
            "CDISC002",
            "DEV0002",
            48,
            "ZANOMALINE",
            "Y",
            "Y",
            5,
            "mL",
            "INJECTION",
            "QD",
            "SUBCUTANEOUS",
            "SDS580-359",
            10.8,
            "g/L",
            "TREATMENT",
            "2013-01-01",
            "2013-01-01",
            48,
            48
          ],
          [
            104,
            "CDISCPILOT01",
            "EC",
            "CDISC002",
            "DEV0002",
            49,
            "ZANOMALINE",
            "Y",
            "Y",
            5,
            "mL",
            "INJECTION",
            "QD",
            "SUBCUTANEOUS",
            "SDS580-359",
            10.8,
            "g/L",
            "TREATMENT",
            "2013-01-02",
            "2013-01-02",
            49,
            49
          ],
          [
            105,
            "CDISCPILOT01",
            "EC",
            "CDISC002",
            "DEV0002",
            50,
            "ZANOMALINE",
            "Y",
            "Y",
            5,
            "mL",
            "INJECTION",
            "QD",
            "SUBCUTANEOUS",
            "SDS580-359",
            10.8,
            "g/L",
            "TREATMENT",
            "2013-01-03",
            "2013-01-03",
            50,
            50
          ],
          [
            106,
            "CDISCPILOT01",
            "EC",
            "CDISC002",
            "DEV0002",
            51,
            "ZANOMALINE",
            "Y",
            "Y",
            5,
            "mL",
            "INJECTION",
            "QD",
            "SUBCUTANEOUS",
            "SDS580-359",
            10.8,
            "g/L",
            "TREATMENT",
            "2013-01-04",
            "2013-01-04",
            51,
            51
          ],
          [
            107,
            "CDISCPILOT01",
            "EC",
            "CDISC002",
            "DEV0002",
            52,
            "ZANOMALINE",
            "Y",
            "Y",
            5,
            "mL",
            "INJECTION",
            "QD",
            "SUBCUTANEOUS",
            "SDS580-359",
            10.8,
            "g/L",
            "TREATMENT",
            "2013-01-05",
            "2013-01-05",
            52,
            52
          ],
          [
            108,
            "CDISCPILOT01",
            "EC",
            "CDISC002",
            "DEV0002",
            53,
            "ZANOMALINE",
            "Y",
            "Y",
            5,
            "mL",
            "INJECTION",
            "QD",
            "SUBCUTANEOUS",
            "SDS580-359",
            10.8,
            "g/L",
            "TREATMENT",
            "2013-01-06",
            "2013-01-06",
            53,
            53
          ],
          [
            109,
            "CDISCPILOT01",
            "EC",
            "CDISC002",
            "DEV0002",
            54,
            "ZANOMALINE",
            "Y",
            "Y",
            5,
            "mL",
            "INJECTION",
            "QD",
            "SUBCUTANEOUS",
            "SDS580-359",
            10.8,
            "g/L",
            "TREATMENT",
            "2013-01-07",
            "2013-01-07",
            54,
            54
          ],
          [
            110,
            "CDISCPILOT01",
            "EC",
            "CDISC002",
            "DEV0002",
            55,
            "ZANOMALINE",
            "Y",
            "Y",
            5,
            "mL",
            "INJECTION",
            "QD",
            "SUBCUTANEOUS",
            "SDS580-359",
            10.8,
            "g/L",
            "TREATMENT",
            "2013-01-08",
            "2013-01-08",
            55,
            55
          ],
          [
            111,
            "CDISCPILOT01",
            "EC",
            "CDISC002",
            "DEV0002",
            56,
            "ZANOMALINE",
            "Y",
            "Y",
            5,
            "mL",
            "INJECTION",
            "QD",
            "SUBCUTANEOUS",
            "SDS580-359",
            10.8,
            "g/L",
            "TREATMENT",
            "2013-01-09",
            "2013-01-09",
            56,
            56
          ],
          [
            112,
            "CDISCPILOT01",
            "EC",
            "CDISC002",
            "DEV0002",
            57,
            "ZANOMALINE",
            "Y",
            "Y",
            5,
            "mL",
            "INJECTION",
            "QD",
            "SUBCUTANEOUS",
            "SDS580-359",
            10.8,
            "g/L",
            "TREATMENT",
            "2013-01-10",
            "2013-01-10",
            57,
            57
          ],
          [
            113,
            "CDISCPILOT01",
            "EC",
            "CDISC002",
            "DEV0002",
            58,
            "ZANOMALINE",
            "Y",
            "Y",
            5,
            "mL",
            "INJECTION",
            "QD",
            "SUBCUTANEOUS",
            "SDS580-359",
            10.8,
            "g/L",
            "TREATMENT",
            "2013-01-11",
            "2013-01-11",
            58,
            58
          ],
          [
            114,
            "CDISCPILOT01",
            "EC",
            "CDISC002",
            "DEV0002",
            59,
            "ZANOMALINE",
            "Y",
            "Y",
            5,
            "mL",
            "INJECTION",
            "QD",
            "SUBCUTANEOUS",
            "SDS580-359",
            10.8,
            "g/L",
            "TREATMENT",
            "2013-01-12",
            "2013-01-12",
            59,
            59
          ],
          [
            115,
            "CDISCPILOT01",
            "EC",
            "CDISC003",
            "DEV0003",
            1,
            "ZANOMALINE",
            "Y",
            "Y",
            5,
            "mL",
            "INJECTION",
            "QD",
            "SUBCUTANEOUS",
            "SDS580-359",
            10.8,
            "g/L",
            "TREATMENT",
            "2013-08-29",
            "2013-08-29",
            1,
            1
          ],
          [
            116,
            "CDISCPILOT01",
            "EC",
            "CDISC003",
            "DEV0003",
            2,
            "ZANOMALINE",
            "Y",
            "Y",
            5,
            "mL",
            "INJECTION",
            "QD",
            "SUBCUTANEOUS",
            "SDS580-359",
            10.8,
            "g/L",
            "TREATMENT",
            "2013-08-30",
            "2013-08-30",
            2,
            2
          ],
          [
            117,
            "CDISCPILOT01",
            "EC",
            "CDISC003",
            "DEV0003",
            3,
            "ZANOMALINE",
            "Y",
            "Y",
            5,
            "mL",
            "INJECTION",
            "QD",
            "SUBCUTANEOUS",
            "SDS580-359",
            10.8,
            "g/L",
            "TREATMENT",
            "2013-08-31",
            "2013-08-31",
            3,
            3
          ],
          [
            118,
            "CDISCPILOT01",
            "EC",
            "CDISC003",
            "DEV0003",
            4,
            "ZANOMALINE",
            "Y",
            "Y",
            5,
            "mL",
            "INJECTION",
            "QD",
            "SUBCUTANEOUS",
            "SDS580-359",
            10.8,
            "g/L",
            "TREATMENT",
            "2013-09-01",
            "2013-09-01",
            4,
            4
          ],
          [
            119,
            "CDISCPILOT01",
            "EC",
            "CDISC003",
            "DEV0003",
            5,
            "ZANOMALINE",
            "Y",
            "Y",
            5,
            "mL",
            "INJECTION",
            "QD",
            "SUBCUTANEOUS",
            "SDS580-359",
            10.8,
            "g/L",
            "TREATMENT",
            "2013-09-02",
            "2013-09-02",
            5,
            5
          ],
          [
            120,
            "CDISCPILOT01",
            "EC",
            "CDISC003",
            "DEV0003",
            6,
            "ZANOMALINE",
            "Y",
            "Y",
            5,
            "mL",
            "INJECTION",
            "QD",
            "SUBCUTANEOUS",
            "SDS580-359",
            10.8,
            "g/L",
            "TREATMENT",
            "2013-09-03",
            "2013-09-03",
            6,
            6
          ],
          [
            121,
            "CDISCPILOT01",
            "EC",
            "CDISC003",
            "DEV0003",
            7,
            "ZANOMALINE",
            "Y",
            "Y",
            5,
            "mL",
            "INJECTION",
            "QD",
            "SUBCUTANEOUS",
            "SDS580-359",
            10.8,
            "g/L",
            "TREATMENT",
            "2013-09-04",
            "2013-09-04",
            7,
            7
          ],
          [
            122,
            "CDISCPILOT01",
            "EC",
            "CDISC003",
            "DEV0003",
            8,
            "ZANOMALINE",
            "Y",
            "Y",
            5,
            "mL",
            "INJECTION",
            "QD",
            "SUBCUTANEOUS",
            "SDS580-359",
            10.8,
            "g/L",
            "TREATMENT",
            "2013-09-05",
            "2013-09-05",
            8,
            8
          ],
          [
            123,
            "CDISCPILOT01",
            "EC",
            "CDISC003",
            "DEV0003",
            9,
            "ZANOMALINE",
            "Y",
            "Y",
            5,
            "mL",
            "INJECTION",
            "QD",
            "SUBCUTANEOUS",
            "SDS580-359",
            10.8,
            "g/L",
            "TREATMENT",
            "2013-09-06",
            "2013-09-06",
            9,
            9
          ],
          [
            124,
            "CDISCPILOT01",
            "EC",
            "CDISC003",
            "DEV0003",
            10,
            "ZANOMALINE",
            "Y",
            "Y",
            5,
            "mL",
            "INJECTION",
            "QD",
            "SUBCUTANEOUS",
            "SDS580-359",
            10.8,
            "g/L",
            "TREATMENT",
            "2013-09-07",
            "2013-09-07",
            10,
            10
          ],
          [
            125,
            "CDISCPILOT01",
            "EC",
            "CDISC003",
            "DEV0003",
            11,
            "ZANOMALINE",
            "Y",
            "Y",
            5,
            "mL",
            "INJECTION",
            "QD",
            "SUBCUTANEOUS",
            "SDS580-359",
            10.8,
            "g/L",
            "TREATMENT",
            "2013-09-08",
            "2013-09-08",
            11,
            11
          ],
          [
            126,
            "CDISCPILOT01",
            "EC",
            "CDISC003",
            "DEV0003",
            12,
            "ZANOMALINE",
            "Y",
            "Y",
            5,
            "mL",
            "INJECTION",
            "QD",
            "SUBCUTANEOUS",
            "SDS580-359",
            10.8,
            "g/L",
            "TREATMENT",
            "2013-09-09",
            "2013-09-09",
            12,
            12
          ],
          [
            127,
            "CDISCPILOT01",
            "EC",
            "CDISC003",
            "DEV0003",
            13,
            "ZANOMALINE",
            "Y",
            "Y",
            5,
            "mL",
            "INJECTION",
            "QD",
            "SUBCUTANEOUS",
            "SDS580-359",
            10.8,
            "g/L",
            "TREATMENT",
            "2013-09-10",
            "2013-09-10",
            13,
            13
          ],
          [
            128,
            "CDISCPILOT01",
            "EC",
            "CDISC003",
            "DEV0003",
            14,
            "ZANOMALINE",
            "Y",
            "Y",
            5,
            "mL",
            "INJECTION",
            "QD",
            "SUBCUTANEOUS",
            "SDS580-359",
            10.8,
            "g/L",
            "TREATMENT",
            "2013-09-11",
            "2013-09-11",
            14,
            14
          ],
          [
            129,
            "CDISCPILOT01",
            "EC",
            "CDISC003",
            "DEV0003",
            15,
            "ZANOMALINE",
            "Y",
            "Y",
            5,
            "mL",
            "INJECTION",
            "QD",
            "SUBCUTANEOUS",
            "SDS580-359",
            10.8,
            "g/L",
            "TREATMENT",
            "2013-09-12",
            "2013-09-12",
            15,
            15
          ],
          [
            130,
            "CDISCPILOT01",
            "EC",
            "CDISC003",
            "DEV0003",
            16,
            "ZANOMALINE",
            "Y",
            "Y",
            5,
            "mL",
            "INJECTION",
            "QD",
            "SUBCUTANEOUS",
            "SDS580-359",
            10.8,
            "g/L",
            "TREATMENT",
            "2013-09-13",
            "2013-09-13",
            16,
            16
          ],
          [
            131,
            "CDISCPILOT01",
            "EC",
            "CDISC003",
            "DEV0003",
            17,
            "ZANOMALINE",
            "Y",
            "Y",
            5,
            "mL",
            "INJECTION",
            "QD",
            "SUBCUTANEOUS",
            "SDS580-359",
            10.8,
            "g/L",
            "TREATMENT",
            "2013-09-14",
            "2013-09-14",
            17,
            17
          ],
          [
            132,
            "CDISCPILOT01",
            "EC",
            "CDISC003",
            "DEV0003",
            18,
            "ZANOMALINE",
            "Y",
            "Y",
            5,
            "mL",
            "INJECTION",
            "QD",
            "SUBCUTANEOUS",
            "SDS580-359",
            10.8,
            "g/L",
            "TREATMENT",
            "2013-09-15",
            "2013-09-15",
            18,
            18
          ],
          [
            133,
            "CDISCPILOT01",
            "EC",
            "CDISC003",
            "DEV0003",
            19,
            "ZANOMALINE",
            "Y",
            "Y",
            5,
            "mL",
            "INJECTION",
            "QD",
            "SUBCUTANEOUS",
            "SDS580-359",
            16.2,
            "g/L",
            "TREATMENT",
            "2013-09-16",
            "2013-09-16",
            19,
            19
          ],
          [
            134,
            "CDISCPILOT01",
            "EC",
            "CDISC003",
            "DEV0003",
            20,
            "ZANOMALINE",
            "Y",
            "Y",
            5,
            "mL",
            "INJECTION",
            "QD",
            "SUBCUTANEOUS",
            "SDS580-359",
            16.2,
            "g/L",
            "TREATMENT",
            "2013-09-17",
            "2013-09-17",
            20,
            20
          ],
          [
            135,
            "CDISCPILOT01",
            "EC",
            "CDISC003",
            "DEV0003",
            21,
            "ZANOMALINE",
            "Y",
            "Y",
            5,
            "mL",
            "INJECTION",
            "QD",
            "SUBCUTANEOUS",
            "SDS580-359",
            16.2,
            "g/L",
            "TREATMENT",
            "2013-09-18",
            "2013-09-18",
            21,
            21
          ],
          [
            136,
            "CDISCPILOT01",
            "EC",
            "CDISC003",
            "DEV0003",
            22,
            "ZANOMALINE",
            "Y",
            "Y",
            5,
            "mL",
            "INJECTION",
            "QD",
            "SUBCUTANEOUS",
            "SDS580-359",
            16.2,
            "g/L",
            "TREATMENT",
            "2013-09-19",
            "2013-09-19",
            22,
            22
          ],
          [
            137,
            "CDISCPILOT01",
            "EC",
            "CDISC003",
            "DEV0003",
            23,
            "ZANOMALINE",
            "Y",
            "Y",
            5,
            "mL",
            "INJECTION",
            "QD",
            "SUBCUTANEOUS",
            "SDS580-359",
            16.2,
            "g/L",
            "TREATMENT",
            "2013-09-20",
            "2013-09-20",
            23,
            23
          ],
          [
            138,
            "CDISCPILOT01",
            "EC",
            "CDISC003",
            "DEV0003",
            24,
            "ZANOMALINE",
            "Y",
            "Y",
            5,
            "mL",
            "INJECTION",
            "QD",
            "SUBCUTANEOUS",
            "SDS580-359",
            16.2,
            "g/L",
            "TREATMENT",
            "2013-09-21",
            "2013-09-21",
            24,
            24
          ],
          [
            139,
            "CDISCPILOT01",
            "EC",
            "CDISC003",
            "DEV0003",
            25,
            "ZANOMALINE",
            "Y",
            "Y",
            5,
            "mL",
            "INJECTION",
            "QD",
            "SUBCUTANEOUS",
            "SDS580-359",
            16.2,
            "g/L",
            "TREATMENT",
            "2013-09-22",
            "2013-09-22",
            25,
            25
          ],
          [
            140,
            "CDISCPILOT01",
            "EC",
            "CDISC003",
            "DEV0003",
            26,
            "ZANOMALINE",
            "Y",
            "Y",
            5,
            "mL",
            "INJECTION",
            "QD",
            "SUBCUTANEOUS",
            "SDS580-359",
            16.2,
            "g/L",
            "TREATMENT",
            "2013-09-23",
            "2013-09-23",
            26,
            26
          ],
          [
            141,
            "CDISCPILOT01",
            "EC",
            "CDISC003",
            "DEV0003",
            27,
            "ZANOMALINE",
            "Y",
            "Y",
            5,
            "mL",
            "INJECTION",
            "QD",
            "SUBCUTANEOUS",
            "SDS580-359",
            16.2,
            "g/L",
            "TREATMENT",
            "2013-09-24",
            "2013-09-24",
            27,
            27
          ],
          [
            142,
            "CDISCPILOT01",
            "EC",
            "CDISC003",
            "DEV0003",
            28,
            "ZANOMALINE",
            "Y",
            "Y",
            5,
            "mL",
            "INJECTION",
            "QD",
            "SUBCUTANEOUS",
            "SDS580-359",
            16.2,
            "g/L",
            "TREATMENT",
            "2013-09-25",
            "2013-09-25",
            28,
            28
          ],
          [
            143,
            "CDISCPILOT01",
            "EC",
            "CDISC003",
            "DEV0003",
            29,
            "ZANOMALINE",
            "Y",
            "Y",
            5,
            "mL",
            "INJECTION",
            "QD",
            "SUBCUTANEOUS",
            "SDS580-359",
            16.2,
            "g/L",
            "TREATMENT",
            "2013-09-26",
            "2013-09-26",
            29,
            29
          ],
          [
            144,
            "CDISCPILOT01",
            "EC",
            "CDISC003",
            "DEV0003",
            30,
            "ZANOMALINE",
            "Y",
            "Y",
            5,
            "mL",
            "INJECTION",
            "QD",
            "SUBCUTANEOUS",
            "SDS580-359",
            16.2,
            "g/L",
            "TREATMENT",
            "2013-09-27",
            "2013-09-27",
            30,
            30
          ],
          [
            145,
            "CDISCPILOT01",
            "EC",
            "CDISC003",
            "DEV0003",
            31,
            "ZANOMALINE",
            "Y",
            "Y",
            5,
            "mL",
            "INJECTION",
            "QD",
            "SUBCUTANEOUS",
            "SDS580-359",
            16.2,
            "g/L",
            "TREATMENT",
            "2013-09-28",
            "2013-09-28",
            31,
            31
          ],
          [
            146,
            "CDISCPILOT01",
            "EC",
            "CDISC003",
            "DEV0003",
            32,
            "ZANOMALINE",
            "Y",
            "Y",
            5,
            "mL",
            "INJECTION",
            "QD",
            "SUBCUTANEOUS",
            "SDS580-359",
            16.2,
            "g/L",
            "TREATMENT",
            "2013-09-29",
            "2013-09-29",
            32,
            32
          ],
          [
            147,
            "CDISCPILOT01",
            "EC",
            "CDISC003",
            "DEV0003",
            33,
            "ZANOMALINE",
            "Y",
            "Y",
            5,
            "mL",
            "INJECTION",
            "QD",
            "SUBCUTANEOUS",
            "SDS580-359",
            16.2,
            "g/L",
            "TREATMENT",
            "2013-09-30",
            "2013-09-30",
            33,
            33
          ],
          [
            148,
            "CDISCPILOT01",
            "EC",
            "CDISC003",
            "DEV0003",
            34,
            "ZANOMALINE",
            "Y",
            "Y",
            5,
            "mL",
            "INJECTION",
            "QD",
            "SUBCUTANEOUS",
            "SDS580-359",
            16.2,
            "g/L",
            "TREATMENT",
            "2013-10-01",
            "2013-10-01",
            34,
            34
          ],
          [
            149,
            "CDISCPILOT01",
            "EC",
            "CDISC003",
            "DEV0003",
            35,
            "ZANOMALINE",
            "Y",
            "Y",
            5,
            "mL",
            "INJECTION",
            "QD",
            "SUBCUTANEOUS",
            "SDS580-359",
            16.2,
            "g/L",
            "TREATMENT",
            "2013-10-02",
            "2013-10-02",
            35,
            35
          ],
          [
            150,
            "CDISCPILOT01",
            "EC",
            "CDISC003",
            "DEV0003",
            36,
            "ZANOMALINE",
            "Y",
            "Y",
            5,
            "mL",
            "INJECTION",
            "QD",
            "SUBCUTANEOUS",
            "SDS580-359",
            16.2,
            "g/L",
            "TREATMENT",
            "2013-10-03",
            "2013-10-03",
            36,
            36
          ],
          [
            151,
            "CDISCPILOT01",
            "EC",
            "CDISC003",
            "DEV0003",
            37,
            "ZANOMALINE",
            "Y",
            "Y",
            5,
            "mL",
            "INJECTION",
            "QD",
            "SUBCUTANEOUS",
            "SDS580-359",
            16.2,
            "g/L",
            "TREATMENT",
            "2013-10-04",
            "2013-10-04",
            37,
            37
          ],
          [
            152,
            "CDISCPILOT01",
            "EC",
            "CDISC003",
            "DEV0003",
            38,
            "ZANOMALINE",
            "Y",
            "Y",
            5,
            "mL",
            "INJECTION",
            "QD",
            "SUBCUTANEOUS",
            "SDS580-359",
            16.2,
            "g/L",
            "TREATMENT",
            "2013-10-05",
            "2013-10-05",
            38,
            38
          ],
          [
            153,
            "CDISCPILOT01",
            "EC",
            "CDISC003",
            "DEV0003",
            39,
            "ZANOMALINE",
            "Y",
            "Y",
            5,
            "mL",
            "INJECTION",
            "QD",
            "SUBCUTANEOUS",
            "SDS580-359",
            16.2,
            "g/L",
            "TREATMENT",
            "2013-10-06",
            "2013-10-06",
            39,
            39
          ],
          [
            154,
            "CDISCPILOT01",
            "EC",
            "CDISC003",
            "DEV0003",
            40,
            "ZANOMALINE",
            "Y",
            "Y",
            5,
            "mL",
            "INJECTION",
            "QD",
            "SUBCUTANEOUS",
            "SDS580-359",
            16.2,
            "g/L",
            "TREATMENT",
            "2013-10-07",
            "2013-10-07",
            40,
            40
          ],
          [
            155,
            "CDISCPILOT01",
            "EC",
            "CDISC003",
            "DEV0003",
            41,
            "ZANOMALINE",
            "Y",
            "Y",
            5,
            "mL",
            "INJECTION",
            "QD",
            "SUBCUTANEOUS",
            "SDS580-359",
            16.2,
            "g/L",
            "TREATMENT",
            "2013-10-08",
            "2013-10-08",
            41,
            41
          ],
          [
            156,
            "CDISCPILOT01",
            "EC",
            "CDISC003",
            "DEV0003",
            42,
            "ZANOMALINE",
            "Y",
            "Y",
            5,
            "mL",
            "INJECTION",
            "QD",
            "SUBCUTANEOUS",
            "SDS580-359",
            16.2,
            "g/L",
            "TREATMENT",
            "2013-10-09",
            "2013-10-09",
            42,
            42
          ],
          [
            157,
            "CDISCPILOT01",
            "EC",
            "CDISC003",
            "DEV0003",
            43,
            "ZANOMALINE",
            "Y",
            "Y",
            5,
            "mL",
            "INJECTION",
            "QD",
            "SUBCUTANEOUS",
            "SDS580-359",
            16.2,
            "g/L",
            "TREATMENT",
            "2013-10-10",
            "2013-10-10",
            43,
            43
          ],
          [
            158,
            "CDISCPILOT01",
            "EC",
            "CDISC003",
            "DEV0003",
            44,
            "ZANOMALINE",
            "Y",
            "Y",
            5,
            "mL",
            "INJECTION",
            "QD",
            "SUBCUTANEOUS",
            "SDS580-359",
            16.2,
            "g/L",
            "TREATMENT",
            "2013-10-11",
            "2013-10-11",
            44,
            44
          ],
          [
            159,
            "CDISCPILOT01",
            "EC",
            "CDISC003",
            "DEV0003",
            45,
            "ZANOMALINE",
            "Y",
            "Y",
            5,
            "mL",
            "INJECTION",
            "QD",
            "SUBCUTANEOUS",
            "SDS580-359",
            16.2,
            "g/L",
            "TREATMENT",
            "2013-10-12",
            "2013-10-12",
            45,
            45
          ],
          [
            160,
            "CDISCPILOT01",
            "EC",
            "CDISC003",
            "DEV0003",
            46,
            "ZANOMALINE",
            "Y",
            "Y",
            5,
            "mL",
            "INJECTION",
            "QD",
            "SUBCUTANEOUS",
            "SDS580-359",
            16.2,
            "g/L",
            "TREATMENT",
            "2013-10-13",
            "2013-10-13",
            46,
            46
          ],
          [
            161,
            "CDISCPILOT01",
            "EC",
            "CDISC003",
            "DEV0003",
            47,
            "ZANOMALINE",
            "Y",
            "Y",
            5,
            "mL",
            "INJECTION",
            "QD",
            "SUBCUTANEOUS",
            "SDS580-359",
            16.2,
            "g/L",
            "TREATMENT",
            "2013-10-14",
            "2013-10-14",
            47,
            47
          ],
          [
            162,
            "CDISCPILOT01",
            "EC",
            "CDISC003",
            "DEV0003",
            48,
            "ZANOMALINE",
            "Y",
            "Y",
            5,
            "mL",
            "INJECTION",
            "QD",
            "SUBCUTANEOUS",
            "SDS580-359",
            16.2,
            "g/L",
            "TREATMENT",
            "2013-10-15",
            "2013-10-15",
            48,
            48
          ],
          [
            163,
            "CDISCPILOT01",
            "EC",
            "CDISC003",
            "DEV0003",
            49,
            "ZANOMALINE",
            "Y",
            "Y",
            5,
            "mL",
            "INJECTION",
            "QD",
            "SUBCUTANEOUS",
            "SDS580-359",
            16.2,
            "g/L",
            "TREATMENT",
            "2013-10-16",
            "2013-10-16",
            49,
            49
          ],
          [
            164,
            "CDISCPILOT01",
            "EC",
            "CDISC003",
            "DEV0003",
            50,
            "ZANOMALINE",
            "Y",
            "Y",
            5,
            "mL",
            "INJECTION",
            "QD",
            "SUBCUTANEOUS",
            "SDS580-359",
            16.2,
            "g/L",
            "TREATMENT",
            "2013-10-17",
            "2013-10-17",
            50,
            50
          ],
          [
            165,
            "CDISCPILOT01",
            "EC",
            "CDISC003",
            "DEV0003",
            51,
            "ZANOMALINE",
            "Y",
            "Y",
            5,
            "mL",
            "INJECTION",
            "QD",
            "SUBCUTANEOUS",
            "SDS580-359",
            16.2,
            "g/L",
            "TREATMENT",
            "2013-10-18",
            "2013-10-18",
            51,
            51
          ],
          [
            166,
            "CDISCPILOT01",
            "EC",
            "CDISC003",
            "DEV0003",
            52,
            "ZANOMALINE",
            "Y",
            "Y",
            5,
            "mL",
            "INJECTION",
            "QD",
            "SUBCUTANEOUS",
            "SDS580-359",
            16.2,
            "g/L",
            "TREATMENT",
            "2013-10-19",
            "2013-10-19",
            52,
            52
          ],
          [
            167,
            "CDISCPILOT01",
            "EC",
            "CDISC003",
            "DEV0003",
            53,
            "ZANOMALINE",
            "Y",
            "Y",
            5,
            "mL",
            "INJECTION",
            "QD",
            "SUBCUTANEOUS",
            "SDS580-359",
            16.2,
            "g/L",
            "TREATMENT",
            "2013-10-20",
            "2013-10-20",
            53,
            53
          ],
          [
            168,
            "CDISCPILOT01",
            "EC",
            "CDISC003",
            "DEV0003",
            54,
            "ZANOMALINE",
            "Y",
            "Y",
            5,
            "mL",
            "INJECTION",
            "QD",
            "SUBCUTANEOUS",
            "SDS580-359",
            16.2,
            "g/L",
            "TREATMENT",
            "2013-10-21",
            "2013-10-21",
            54,
            54
          ],
          [
            169,
            "CDISCPILOT01",
            "EC",
            "CDISC003",
            "DEV0003",
            55,
            "ZANOMALINE",
            "Y",
            "Y",
            5,
            "mL",
            "INJECTION",
            "QD",
            "SUBCUTANEOUS",
            "SDS580-359",
            16.2,
            "g/L",
            "TREATMENT",
            "2013-10-22",
            "2013-10-22",
            55,
            55
          ],
          [
            170,
            "CDISCPILOT01",
            "EC",
            "CDISC003",
            "DEV0003",
            56,
            "ZANOMALINE",
            "Y",
            "Y",
            5,
            "mL",
            "INJECTION",
            "QD",
            "SUBCUTANEOUS",
            "SDS580-359",
            16.2,
            "g/L",
            "TREATMENT",
            "2013-10-23",
            "2013-10-23",
            56,
            56
          ],
          [
            171,
            "CDISCPILOT01",
            "EC",
            "CDISC003",
            "DEV0003",
            57,
            "ZANOMALINE",
            "Y",
            "Y",
            5,
            "mL",
            "INJECTION",
            "QD",
            "SUBCUTANEOUS",
            "SDS580-359",
            16.2,
            "g/L",
            "TREATMENT",
            "2013-10-24",
            "2013-10-24",
            57,
            57
          ],
          [
            172,
            "CDISCPILOT01",
            "EC",
            "CDISC003",
            "DEV0003",
            58,
            "ZANOMALINE",
            "Y",
            "Y",
            5,
            "mL",
            "INJECTION",
            "QD",
            "SUBCUTANEOUS",
            "SDS580-359",
            16.2,
            "g/L",
            "TREATMENT",
            "2013-10-25",
            "2013-10-25",
            58,
            58
          ],
          [
            173,
            "CDISCPILOT01",
            "EC",
            "CDISC003",
            "DEV0003",
            59,
            "ZANOMALINE",
            "Y",
            "Y",
            5,
            "mL",
            "INJECTION",
            "QD",
            "SUBCUTANEOUS",
            "SDS580-359",
            16.2,
            "g/L",
            "TREATMENT",
            "2013-10-26",
            "2013-10-26",
            59,
            59
          ],
          [
            174,
            "CDISCPILOT01",
            "EC",
            "CDISC003",
            "DEV0003",
            60,
            "ZANOMALINE",
            "Y",
            "Y",
            5,
            "mL",
            "INJECTION",
            "QD",
            "SUBCUTANEOUS",
            "SDS580-359",
            16.2,
            "g/L",
            "TREATMENT",
            "2013-10-27",
            "2013-10-27",
            60,
            60
          ],
          [
            175,
            "CDISCPILOT01",
            "EC",
            "CDISC003",
            "DEV0003",
            61,
            "ZANOMALINE",
            "Y",
            "Y",
            5,
            "mL",
            "INJECTION",
            "QD",
            "SUBCUTANEOUS",
            "SDS580-359",
            16.2,
            "g/L",
            "TREATMENT",
            "2013-10-28",
            "2013-10-28",
            61,
            61
          ],
          [
            176,
            "CDISCPILOT01",
            "EC",
            "CDISC003",
            "DEV0003",
            62,
            "ZANOMALINE",
            "Y",
            "Y",
            5,
            "mL",
            "INJECTION",
            "QD",
            "SUBCUTANEOUS",
            "SDS580-359",
            16.2,
            "g/L",
            "TREATMENT",
            "2013-10-29",
            "2013-10-29",
            62,
            62
          ],
          [
            177,
            "CDISCPILOT01",
            "EC",
            "CDISC003",
            "DEV0003",
            63,
            "ZANOMALINE",
            "Y",
            "Y",
            5,
            "mL",
            "INJECTION",
            "QD",
            "SUBCUTANEOUS",
            "SDS580-359",
            16.2,
            "g/L",
            "TREATMENT",
            "2013-10-30",
            "2013-10-30",
            63,
            63
          ],
          [
            178,
            "CDISCPILOT01",
            "EC",
            "CDISC003",
            "DEV0003",
            64,
            "ZANOMALINE",
            "Y",
            "Y",
            5,
            "mL",
            "INJECTION",
            "QD",
            "SUBCUTANEOUS",
            "SDS580-359",
            16.2,
            "g/L",
            "TREATMENT",
            "2013-10-31",
            "2013-10-31",
            64,
            64
          ],
          [
            179,
            "CDISCPILOT01",
            "EC",
            "CDISC003",
            "DEV0003",
            65,
            "ZANOMALINE",
            "Y",
            "Y",
            5,
            "mL",
            "INJECTION",
            "QD",
            "SUBCUTANEOUS",
            "SDS580-359",
            16.2,
            "g/L",
            "TREATMENT",
            "2013-11-01",
            "2013-11-01",
            65,
            65
          ],
          [
            180,
            "CDISCPILOT01",
            "EC",
            "CDISC003",
            "DEV0003",
            66,
            "ZANOMALINE",
            "Y",
            "Y",
            5,
            "mL",
            "INJECTION",
            "QD",
            "SUBCUTANEOUS",
            "SDS580-359",
            16.2,
            "g/L",
            "TREATMENT",
            "2013-11-02",
            "2013-11-02",
            66,
            66
          ],
          [
            181,
            "CDISCPILOT01",
            "EC",
            "CDISC003",
            "DEV0003",
            67,
            "ZANOMALINE",
            "Y",
            "Y",
            5,
            "mL",
            "INJECTION",
            "QD",
            "SUBCUTANEOUS",
            "SDS580-359",
            16.2,
            "g/L",
            "TREATMENT",
            "2013-11-03",
            "2013-11-03",
            67,
            67
          ],
          [
            182,
            "CDISCPILOT01",
            "EC",
            "CDISC003",
            "DEV0003",
            68,
            "ZANOMALINE",
            "Y",
            "Y",
            5,
            "mL",
            "INJECTION",
            "QD",
            "SUBCUTANEOUS",
            "SDS580-359",
            16.2,
            "g/L",
            "TREATMENT",
            "2013-11-04",
            "2013-11-04",
            68,
            68
          ],
          [
            183,
            "CDISCPILOT01",
            "EC",
            "CDISC003",
            "DEV0003",
            69,
            "ZANOMALINE",
            "Y",
            "Y",
            5,
            "mL",
            "INJECTION",
            "QD",
            "SUBCUTANEOUS",
            "SDS580-359",
            16.2,
            "g/L",
            "TREATMENT",
            "2013-11-05",
            "2013-11-05",
            69,
            69
          ],
          [
            184,
            "CDISCPILOT01",
            "EC",
            "CDISC004",
            "DEV0004",
            1,
            "PLACEBO",
            "Y",
            "Y",
            5,
            "mL",
            "INJECTION",
            "QD",
            "SUBCUTANEOUS",
            "SDS580-485",
            0,
            "g/L",
            "TREATMENT",
            "2013-10-08",
            "2013-10-08",
            1,
            1
          ],
          [
            185,
            "CDISCPILOT01",
            "EC",
            "CDISC004",
            "DEV0004",
            2,
            "PLACEBO",
            "Y",
            "Y",
            5,
            "mL",
            "INJECTION",
            "QD",
            "SUBCUTANEOUS",
            "SDS580-485",
            0,
            "g/L",
            "TREATMENT",
            "2013-10-09",
            "2013-10-09",
            2,
            2
          ],
          [
            186,
            "CDISCPILOT01",
            "EC",
            "CDISC004",
            "DEV0004",
            3,
            "PLACEBO",
            "Y",
            "Y",
            5,
            "mL",
            "INJECTION",
            "QD",
            "SUBCUTANEOUS",
            "SDS580-485",
            0,
            "g/L",
            "TREATMENT",
            "2013-10-10",
            "2013-10-10",
            3,
            3
          ],
          [
            187,
            "CDISCPILOT01",
            "EC",
            "CDISC004",
            "DEV0004",
            4,
            "PLACEBO",
            "Y",
            "Y",
            5,
            "mL",
            "INJECTION",
            "QD",
            "SUBCUTANEOUS",
            "SDS580-485",
            0,
            "g/L",
            "TREATMENT",
            "2013-10-11",
            "2013-10-11",
            4,
            4
          ],
          [
            188,
            "CDISCPILOT01",
            "EC",
            "CDISC004",
            "DEV0004",
            5,
            "PLACEBO",
            "Y",
            "Y",
            5,
            "mL",
            "INJECTION",
            "QD",
            "SUBCUTANEOUS",
            "SDS580-485",
            0,
            "g/L",
            "TREATMENT",
            "2013-10-12",
            "2013-10-12",
            5,
            5
          ],
          [
            189,
            "CDISCPILOT01",
            "EC",
            "CDISC004",
            "DEV0004",
            6,
            "PLACEBO",
            "Y",
            "Y",
            5,
            "mL",
            "INJECTION",
            "QD",
            "SUBCUTANEOUS",
            "SDS580-485",
            0,
            "g/L",
            "TREATMENT",
            "2013-10-13",
            "2013-10-13",
            6,
            6
          ],
          [
            190,
            "CDISCPILOT01",
            "EC",
            "CDISC004",
            "DEV0004",
            7,
            "PLACEBO",
            "Y",
            "Y",
            5,
            "mL",
            "INJECTION",
            "QD",
            "SUBCUTANEOUS",
            "SDS580-485",
            0,
            "g/L",
            "TREATMENT",
            "2013-10-14",
            "2013-10-14",
            7,
            7
          ],
          [
            191,
            "CDISCPILOT01",
            "EC",
            "CDISC004",
            "DEV0004",
            8,
            "PLACEBO",
            "Y",
            "Y",
            5,
            "mL",
            "INJECTION",
            "QD",
            "SUBCUTANEOUS",
            "SDS580-485",
            0,
            "g/L",
            "TREATMENT",
            "2013-10-15",
            "2013-10-15",
            8,
            8
          ],
          [
            192,
            "CDISCPILOT01",
            "EC",
            "CDISC004",
            "DEV0004",
            9,
            "PLACEBO",
            "Y",
            "Y",
            5,
            "mL",
            "INJECTION",
            "QD",
            "SUBCUTANEOUS",
            "SDS580-485",
            0,
            "g/L",
            "TREATMENT",
            "2013-10-16",
            "2013-10-16",
            9,
            9
          ],
          [
            193,
            "CDISCPILOT01",
            "EC",
            "CDISC004",
            "DEV0004",
            10,
            "PLACEBO",
            "Y",
            "Y",
            5,
            "mL",
            "INJECTION",
            "QD",
            "SUBCUTANEOUS",
            "SDS580-485",
            0,
            "g/L",
            "TREATMENT",
            "2013-10-17",
            "2013-10-17",
            10,
            10
          ],
          [
            194,
            "CDISCPILOT01",
            "EC",
            "CDISC004",
            "DEV0004",
            11,
            "PLACEBO",
            "Y",
            "Y",
            5,
            "mL",
            "INJECTION",
            "QD",
            "SUBCUTANEOUS",
            "SDS580-485",
            0,
            "g/L",
            "TREATMENT",
            "2013-10-18",
            "2013-10-18",
            11,
            11
          ],
          [
            195,
            "CDISCPILOT01",
            "EC",
            "CDISC004",
            "DEV0004",
            12,
            "PLACEBO",
            "Y",
            "Y",
            5,
            "mL",
            "INJECTION",
            "QD",
            "SUBCUTANEOUS",
            "SDS580-485",
            0,
            "g/L",
            "TREATMENT",
            "2013-10-19",
            "2013-10-19",
            12,
            12
          ],
          [
            196,
            "CDISCPILOT01",
            "EC",
            "CDISC004",
            "DEV0004",
            13,
            "PLACEBO",
            "Y",
            "Y",
            5,
            "mL",
            "INJECTION",
            "QD",
            "SUBCUTANEOUS",
            "SDS580-485",
            0,
            "g/L",
            "TREATMENT",
            "2013-10-20",
            "2013-10-20",
            13,
            13
          ],
          [
            197,
            "CDISCPILOT01",
            "EC",
            "CDISC004",
            "DEV0004",
            14,
            "PLACEBO",
            "Y",
            "Y",
            5,
            "mL",
            "INJECTION",
            "QD",
            "SUBCUTANEOUS",
            "SDS580-485",
            0,
            "g/L",
            "TREATMENT",
            "2013-10-21",
            "2013-10-21",
            14,
            14
          ],
          [
            198,
            "CDISCPILOT01",
            "EC",
            "CDISC004",
            "DEV0004",
            15,
            "PLACEBO",
            "Y",
            "Y",
            5,
            "mL",
            "INJECTION",
            "QD",
            "SUBCUTANEOUS",
            "SDS580-485",
            0,
            "g/L",
            "TREATMENT",
            "2013-10-22",
            "2013-10-22",
            15,
            15
          ],
          [
            199,
            "CDISCPILOT01",
            "EC",
            "CDISC004",
            "DEV0004",
            16,
            "PLACEBO",
            "Y",
            "Y",
            5,
            "mL",
            "INJECTION",
            "QD",
            "SUBCUTANEOUS",
            "SDS580-485",
            0,
            "g/L",
            "TREATMENT",
            "2013-10-23",
            "2013-10-23",
            16,
            16
          ],
          [
            200,
            "CDISCPILOT01",
            "EC",
            "CDISC004",
            "DEV0004",
            17,
            "PLACEBO",
            "Y",
            "Y",
            5,
            "mL",
            "INJECTION",
            "QD",
            "SUBCUTANEOUS",
            "SDS580-485",
            0,
            "g/L",
            "TREATMENT",
            "2013-10-24",
            "2013-10-24",
            17,
            17
          ],
          [
            201,
            "CDISCPILOT01",
            "EC",
            "CDISC004",
            "DEV0004",
            18,
            "PLACEBO",
            "Y",
            "Y",
            5,
            "mL",
            "INJECTION",
            "QD",
            "SUBCUTANEOUS",
            "SDS580-485",
            0,
            "g/L",
            "TREATMENT",
            "2013-10-25",
            "2013-10-25",
            18,
            18
          ],
          [
            202,
            "CDISCPILOT01",
            "EC",
            "CDISC004",
            "DEV0004",
            19,
            "PLACEBO",
            "Y",
            "Y",
            5,
            "mL",
            "INJECTION",
            "QD",
            "SUBCUTANEOUS",
            "SDS580-485",
            0,
            "g/L",
            "TREATMENT",
            "2013-10-26",
            "2013-10-26",
            19,
            19
          ],
          [
            203,
            "CDISCPILOT01",
            "EC",
            "CDISC004",
            "DEV0004",
            20,
            "PLACEBO",
            "Y",
            "Y",
            5,
            "mL",
            "INJECTION",
            "QD",
            "SUBCUTANEOUS",
            "SDS580-485",
            0,
            "g/L",
            "TREATMENT",
            "2013-10-27",
            "2013-10-27",
            20,
            20
          ],
          [
            204,
            "CDISCPILOT01",
            "EC",
            "CDISC004",
            "DEV0004",
            21,
            "PLACEBO",
            "Y",
            "Y",
            5,
            "mL",
            "INJECTION",
            "QD",
            "SUBCUTANEOUS",
            "SDS580-485",
            0,
            "g/L",
            "TREATMENT",
            "2013-10-28",
            "2013-10-28",
            21,
            21
          ],
          [
            205,
            "CDISCPILOT01",
            "EC",
            "CDISC004",
            "DEV0004",
            22,
            "PLACEBO",
            "Y",
            "Y",
            5,
            "mL",
            "INJECTION",
            "QD",
            "SUBCUTANEOUS",
            "SDS580-485",
            0,
            "g/L",
            "TREATMENT",
            "2013-10-29",
            "2013-10-29",
            22,
            22
          ],
          [
            206,
            "CDISCPILOT01",
            "EC",
            "CDISC004",
            "DEV0004",
            23,
            "PLACEBO",
            "Y",
            "Y",
            5,
            "mL",
            "INJECTION",
            "QD",
            "SUBCUTANEOUS",
            "SDS580-485",
            0,
            "g/L",
            "TREATMENT",
            "2013-10-30",
            "2013-10-30",
            23,
            23
          ],
          [
            207,
            "CDISCPILOT01",
            "EC",
            "CDISC004",
            "DEV0004",
            24,
            "PLACEBO",
            "Y",
            "Y",
            5,
            "mL",
            "INJECTION",
            "QD",
            "SUBCUTANEOUS",
            "SDS580-485",
            0,
            "g/L",
            "TREATMENT",
            "2013-10-31",
            "2013-10-31",
            24,
            24
          ],
          [
            208,
            "CDISCPILOT01",
            "EC",
            "CDISC004",
            "DEV0004",
            25,
            "PLACEBO",
            "Y",
            "Y",
            5,
            "mL",
            "INJECTION",
            "QD",
            "SUBCUTANEOUS",
            "SDS580-485",
            0,
            "g/L",
            "TREATMENT",
            "2013-11-01",
            "2013-11-01",
            25,
            25
          ],
          [
            209,
            "CDISCPILOT01",
            "EC",
            "CDISC004",
            "DEV0004",
            26,
            "PLACEBO",
            "Y",
            "Y",
            5,
            "mL",
            "INJECTION",
            "QD",
            "SUBCUTANEOUS",
            "SDS580-485",
            0,
            "g/L",
            "TREATMENT",
            "2013-11-02",
            "2013-11-02",
            26,
            26
          ],
          [
            210,
            "CDISCPILOT01",
            "EC",
            "CDISC004",
            "DEV0004",
            27,
            "PLACEBO",
            "Y",
            "Y",
            5,
            "mL",
            "INJECTION",
            "QD",
            "SUBCUTANEOUS",
            "SDS580-485",
            0,
            "g/L",
            "TREATMENT",
            "2013-11-03",
            "2013-11-03",
            27,
            27
          ],
          [
            211,
            "CDISCPILOT01",
            "EC",
            "CDISC004",
            "DEV0004",
            28,
            "PLACEBO",
            "Y",
            "Y",
            5,
            "mL",
            "INJECTION",
            "QD",
            "SUBCUTANEOUS",
            "SDS580-485",
            0,
            "g/L",
            "TREATMENT",
            "2013-11-04",
            "2013-11-04",
            28,
            28
          ],
          [
            212,
            "CDISCPILOT01",
            "EC",
            "CDISC004",
            "DEV0004",
            29,
            "PLACEBO",
            "Y",
            "Y",
            5,
            "mL",
            "INJECTION",
            "QD",
            "SUBCUTANEOUS",
            "SDS580-485",
            0,
            "g/L",
            "TREATMENT",
            "2013-11-05",
            "2013-11-05",
            29,
            29
          ],
          [
            213,
            "CDISCPILOT01",
            "EC",
            "CDISC004",
            "DEV0004",
            30,
            "PLACEBO",
            "Y",
            "Y",
            5,
            "mL",
            "INJECTION",
            "QD",
            "SUBCUTANEOUS",
            "SDS580-485",
            0,
            "g/L",
            "TREATMENT",
            "2013-11-06",
            "2013-11-06",
            30,
            30
          ],
          [
            214,
            "CDISCPILOT01",
            "EC",
            "CDISC004",
            "DEV0004",
            31,
            "PLACEBO",
            "Y",
            "Y",
            5,
            "mL",
            "INJECTION",
            "QD",
            "SUBCUTANEOUS",
            "SDS580-485",
            0,
            "g/L",
            "TREATMENT",
            "2013-11-07",
            "2013-11-07",
            31,
            31
          ],
          [
            215,
            "CDISCPILOT01",
            "EC",
            "CDISC004",
            "DEV0004",
            32,
            "PLACEBO",
            "Y",
            "Y",
            5,
            "mL",
            "INJECTION",
            "QD",
            "SUBCUTANEOUS",
            "SDS580-485",
            0,
            "g/L",
            "TREATMENT",
            "2013-11-08",
            "2013-11-08",
            32,
            32
          ],
          [
            216,
            "CDISCPILOT01",
            "EC",
            "CDISC004",
            "DEV0004",
            33,
            "PLACEBO",
            "Y",
            "Y",
            5,
            "mL",
            "INJECTION",
            "QD",
            "SUBCUTANEOUS",
            "SDS580-485",
            0,
            "g/L",
            "TREATMENT",
            "2013-11-09",
            "2013-11-09",
            33,
            33
          ],
          [
            217,
            "CDISCPILOT01",
            "EC",
            "CDISC004",
            "DEV0004",
            34,
            "PLACEBO",
            "Y",
            "Y",
            5,
            "mL",
            "INJECTION",
            "QD",
            "SUBCUTANEOUS",
            "SDS580-485",
            0,
            "g/L",
            "TREATMENT",
            "2013-11-10",
            "2013-11-10",
            34,
            34
          ],
          [
            218,
            "CDISCPILOT01",
            "EC",
            "CDISC004",
            "DEV0004",
            35,
            "PLACEBO",
            "Y",
            "Y",
            5,
            "mL",
            "INJECTION",
            "QD",
            "SUBCUTANEOUS",
            "SDS580-485",
            0,
            "g/L",
            "TREATMENT",
            "2013-11-11",
            "2013-11-11",
            35,
            35
          ],
          [
            219,
            "CDISCPILOT01",
            "EC",
            "CDISC004",
            "DEV0004",
            36,
            "PLACEBO",
            "Y",
            "Y",
            5,
            "mL",
            "INJECTION",
            "QD",
            "SUBCUTANEOUS",
            "SDS580-485",
            0,
            "g/L",
            "TREATMENT",
            "2013-11-12",
            "2013-11-12",
            36,
            36
          ],
          [
            220,
            "CDISCPILOT01",
            "EC",
            "CDISC004",
            "DEV0004",
            37,
            "PLACEBO",
            "Y",
            "Y",
            5,
            "mL",
            "INJECTION",
            "QD",
            "SUBCUTANEOUS",
            "SDS580-485",
            0,
            "g/L",
            "TREATMENT",
            "2013-11-13",
            "2013-11-13",
            37,
            37
          ],
          [
            221,
            "CDISCPILOT01",
            "EC",
            "CDISC004",
            "DEV0004",
            38,
            "PLACEBO",
            "Y",
            "Y",
            5,
            "mL",
            "INJECTION",
            "QD",
            "SUBCUTANEOUS",
            "SDS580-485",
            0,
            "g/L",
            "TREATMENT",
            "2013-11-14",
            "2013-11-14",
            38,
            38
          ],
          [
            222,
            "CDISCPILOT01",
            "EC",
            "CDISC004",
            "DEV0004",
            39,
            "PLACEBO",
            "Y",
            "Y",
            5,
            "mL",
            "INJECTION",
            "QD",
            "SUBCUTANEOUS",
            "SDS580-485",
            0,
            "g/L",
            "TREATMENT",
            "2013-11-15",
            "2013-11-15",
            39,
            39
          ],
          [
            223,
            "CDISCPILOT01",
            "EC",
            "CDISC004",
            "DEV0004",
            40,
            "PLACEBO",
            "Y",
            "Y",
            5,
            "mL",
            "INJECTION",
            "QD",
            "SUBCUTANEOUS",
            "SDS580-485",
            0,
            "g/L",
            "TREATMENT",
            "2013-11-16",
            "2013-11-16",
            40,
            40
          ],
          [
            224,
            "CDISCPILOT01",
            "EC",
            "CDISC004",
            "DEV0004",
            41,
            "PLACEBO",
            "Y",
            "Y",
            5,
            "mL",
            "INJECTION",
            "QD",
            "SUBCUTANEOUS",
            "SDS580-485",
            0,
            "g/L",
            "TREATMENT",
            "2013-11-17",
            "2013-11-17",
            41,
            41
          ],
          [
            225,
            "CDISCPILOT01",
            "EC",
            "CDISC004",
            "DEV0004",
            42,
            "PLACEBO",
            "Y",
            "Y",
            5,
            "mL",
            "INJECTION",
            "QD",
            "SUBCUTANEOUS",
            "SDS580-485",
            0,
            "g/L",
            "TREATMENT",
            "2013-11-18",
            "2013-11-18",
            42,
            42
          ],
          [
            226,
            "CDISCPILOT01",
            "EC",
            "CDISC004",
            "DEV0004",
            43,
            "PLACEBO",
            "Y",
            "Y",
            5,
            "mL",
            "INJECTION",
            "QD",
            "SUBCUTANEOUS",
            "SDS580-485",
            0,
            "g/L",
            "TREATMENT",
            "2013-11-19",
            "2013-11-19",
            43,
            43
          ],
          [
            227,
            "CDISCPILOT01",
            "EC",
            "CDISC004",
            "DEV0004",
            44,
            "PLACEBO",
            "Y",
            "Y",
            5,
            "mL",
            "INJECTION",
            "QD",
            "SUBCUTANEOUS",
            "SDS580-485",
            0,
            "g/L",
            "TREATMENT",
            "2013-11-20",
            "2013-11-20",
            44,
            44
          ],
          [
            228,
            "CDISCPILOT01",
            "EC",
            "CDISC004",
            "DEV0004",
            45,
            "PLACEBO",
            "Y",
            "Y",
            5,
            "mL",
            "INJECTION",
            "QD",
            "SUBCUTANEOUS",
            "SDS580-485",
            0,
            "g/L",
            "TREATMENT",
            "2013-11-21",
            "2013-11-21",
            45,
            45
          ],
          [
            229,
            "CDISCPILOT01",
            "EC",
            "CDISC004",
            "DEV0004",
            46,
            "PLACEBO",
            "Y",
            "Y",
            5,
            "mL",
            "INJECTION",
            "QD",
            "SUBCUTANEOUS",
            "SDS580-485",
            0,
            "g/L",
            "TREATMENT",
            "2013-11-22",
            "2013-11-22",
            46,
            46
          ],
          [
            230,
            "CDISCPILOT01",
            "EC",
            "CDISC004",
            "DEV0004",
            47,
            "PLACEBO",
            "Y",
            "Y",
            5,
            "mL",
            "INJECTION",
            "QD",
            "SUBCUTANEOUS",
            "SDS580-485",
            0,
            "g/L",
            "TREATMENT",
            "2013-11-23",
            "2013-11-23",
            47,
            47
          ],
          [
            231,
            "CDISCPILOT01",
            "EC",
            "CDISC004",
            "DEV0004",
            48,
            "PLACEBO",
            "Y",
            "Y",
            5,
            "mL",
            "INJECTION",
            "QD",
            "SUBCUTANEOUS",
            "SDS580-485",
            0,
            "g/L",
            "TREATMENT",
            "2013-11-24",
            "2013-11-24",
            48,
            48
          ],
          [
            232,
            "CDISCPILOT01",
            "EC",
            "CDISC004",
            "DEV0004",
            49,
            "PLACEBO",
            "Y",
            "Y",
            5,
            "mL",
            "INJECTION",
            "QD",
            "SUBCUTANEOUS",
            "SDS580-485",
            0,
            "g/L",
            "TREATMENT",
            "2013-11-25",
            "2013-11-25",
            49,
            49
          ],
          [
            233,
            "CDISCPILOT01",
            "EC",
            "CDISC004",
            "DEV0004",
            50,
            "PLACEBO",
            "Y",
            "Y",
            5,
            "mL",
            "INJECTION",
            "QD",
            "SUBCUTANEOUS",
            "SDS580-485",
            0,
            "g/L",
            "TREATMENT",
            "2013-11-26",
            "2013-11-26",
            50,
            50
          ],
          [
            234,
            "CDISCPILOT01",
            "EC",
            "CDISC004",
            "DEV0004",
            51,
            "PLACEBO",
            "Y",
            "Y",
            5,
            "mL",
            "INJECTION",
            "QD",
            "SUBCUTANEOUS",
            "SDS580-485",
            0,
            "g/L",
            "TREATMENT",
            "2013-11-27",
            "2013-11-27",
            51,
            51
          ],
          [
            235,
            "CDISCPILOT01",
            "EC",
            "CDISC004",
            "DEV0004",
            52,
            "PLACEBO",
            "Y",
            "Y",
            5,
            "mL",
            "INJECTION",
            "QD",
            "SUBCUTANEOUS",
            "SDS580-485",
            0,
            "g/L",
            "TREATMENT",
            "2013-11-28",
            "2013-11-28",
            52,
            52
          ],
          [
            236,
            "CDISCPILOT01",
            "EC",
            "CDISC004",
            "DEV0004",
            53,
            "PLACEBO",
            "Y",
            "Y",
            5,
            "mL",
            "INJECTION",
            "QD",
            "SUBCUTANEOUS",
            "SDS580-485",
            0,
            "g/L",
            "TREATMENT",
            "2013-11-29",
            "2013-11-29",
            53,
            53
          ],
          [
            237,
            "CDISCPILOT01",
            "EC",
            "CDISC004",
            "DEV0004",
            54,
            "PLACEBO",
            "Y",
            "Y",
            5,
            "mL",
            "INJECTION",
            "QD",
            "SUBCUTANEOUS",
            "SDS580-485",
            0,
            "g/L",
            "TREATMENT",
            "2013-11-30",
            "2013-11-30",
            54,
            54
          ],
          [
            238,
            "CDISCPILOT01",
            "EC",
            "CDISC004",
            "DEV0004",
            55,
            "PLACEBO",
            "Y",
            "Y",
            5,
            "mL",
            "INJECTION",
            "QD",
            "SUBCUTANEOUS",
            "SDS580-485",
            0,
            "g/L",
            "TREATMENT",
            "2013-12-01",
            "2013-12-01",
            55,
            55
          ],
          [
            239,
            "CDISCPILOT01",
            "EC",
            "CDISC004",
            "DEV0004",
            56,
            "PLACEBO",
            "Y",
            "Y",
            5,
            "mL",
            "INJECTION",
            "QD",
            "SUBCUTANEOUS",
            "SDS580-485",
            0,
            "g/L",
            "TREATMENT",
            "2013-12-02",
            "2013-12-02",
            56,
            56
          ],
          [
            240,
            "CDISCPILOT01",
            "EC",
            "CDISC004",
            "DEV0004",
            57,
            "PLACEBO",
            "Y",
            "Y",
            5,
            "mL",
            "INJECTION",
            "QD",
            "SUBCUTANEOUS",
            "SDS580-485",
            0,
            "g/L",
            "TREATMENT",
            "2013-12-03",
            "2013-12-03",
            57,
            57
          ],
          [
            241,
            "CDISCPILOT01",
            "EC",
            "CDISC004",
            "DEV0004",
            58,
            "PLACEBO",
            "Y",
            "Y",
            5,
            "mL",
            "INJECTION",
            "QD",
            "SUBCUTANEOUS",
            "SDS580-485",
            0,
            "g/L",
            "TREATMENT",
            "2013-12-04",
            "2013-12-04",
            58,
            58
          ],
          [
            242,
            "CDISCPILOT01",
            "EC",
            "CDISC004",
            "DEV0004",
            59,
            "PLACEBO",
            "Y",
            "Y",
            5,
            "mL",
            "INJECTION",
            "QD",
            "SUBCUTANEOUS",
            "SDS580-485",
            0,
            "g/L",
            "TREATMENT",
            "2013-12-05",
            "2013-12-05",
            59,
            59
          ],
          [
            243,
            "CDISCPILOT01",
            "EC",
            "CDISC004",
            "DEV0004",
            60,
            "PLACEBO",
            "Y",
            "Y",
            5,
            "mL",
            "INJECTION",
            "QD",
            "SUBCUTANEOUS",
            "SDS580-485",
            0,
            "g/L",
            "TREATMENT",
            "2013-12-06",
            "2013-12-06",
            60,
            60
          ],
          [
            244,
            "CDISCPILOT01",
            "EC",
            "CDISC004",
            "DEV0004",
            61,
            "PLACEBO",
            "Y",
            "Y",
            5,
            "mL",
            "INJECTION",
            "QD",
            "SUBCUTANEOUS",
            "SDS580-485",
            0,
            "g/L",
            "TREATMENT",
            "2013-12-07",
            "2013-12-07",
            61,
            61
          ],
          [
            245,
            "CDISCPILOT01",
            "EC",
            "CDISC004",
            "DEV0004",
            62,
            "PLACEBO",
            "Y",
            "Y",
            5,
            "mL",
            "INJECTION",
            "QD",
            "SUBCUTANEOUS",
            "SDS580-485",
            0,
            "g/L",
            "TREATMENT",
            "2013-12-08",
            "2013-12-08",
            62,
            62
          ],
          [
            246,
            "CDISCPILOT01",
            "EC",
            "CDISC004",
            "DEV0004",
            63,
            "PLACEBO",
            "Y",
            "Y",
            5,
            "mL",
            "INJECTION",
            "QD",
            "SUBCUTANEOUS",
            "SDS580-485",
            0,
            "g/L",
            "TREATMENT",
            "2013-12-09",
            "2013-12-09",
            63,
            63
          ],
          [
            247,
            "CDISCPILOT01",
            "EC",
            "CDISC004",
            "DEV0004",
            64,
            "PLACEBO",
            "Y",
            "Y",
            5,
            "mL",
            "INJECTION",
            "QD",
            "SUBCUTANEOUS",
            "SDS580-485",
            0,
            "g/L",
            "TREATMENT",
            "2013-12-10",
            "2013-12-10",
            64,
            64
          ],
          [
            248,
            "CDISCPILOT01",
            "EC",
            "CDISC004",
            "DEV0004",
            65,
            "PLACEBO",
            "Y",
            "Y",
            5,
            "mL",
            "INJECTION",
            "QD",
            "SUBCUTANEOUS",
            "SDS580-485",
            0,
            "g/L",
            "TREATMENT",
            "2013-12-11",
            "2013-12-11",
            65,
            65
          ],
          [
            249,
            "CDISCPILOT01",
            "EC",
            "CDISC004",
            "DEV0004",
            66,
            "PLACEBO",
            "Y",
            "Y",
            5,
            "mL",
            "INJECTION",
            "QD",
            "SUBCUTANEOUS",
            "SDS580-485",
            0,
            "g/L",
            "TREATMENT",
            "2013-12-12",
            "2013-12-12",
            66,
            66
          ],
          [
            250,
            "CDISCPILOT01",
            "EC",
            "CDISC004",
            "DEV0004",
            67,
            "PLACEBO",
            "Y",
            "Y",
            5,
            "mL",
            "INJECTION",
            "QD",
            "SUBCUTANEOUS",
            "SDS580-485",
            0,
            "g/L",
            "TREATMENT",
            "2013-12-13",
            "2013-12-13",
            67,
            67
          ],
          [
            251,
            "CDISCPILOT01",
            "EC",
            "CDISC004",
            "DEV0004",
            68,
            "PLACEBO",
            "Y",
            "Y",
            5,
            "mL",
            "INJECTION",
            "QD",
            "SUBCUTANEOUS",
            "SDS580-485",
            0,
            "g/L",
            "TREATMENT",
            "2013-12-14",
            "2013-12-14",
            68,
            68
          ],
          [
            252,
            "CDISCPILOT01",
            "EC",
            "CDISC004",
            "DEV0004",
            69,
            "PLACEBO",
            "Y",
            "Y",
            5,
            "mL",
            "INJECTION",
            "QD",
            "SUBCUTANEOUS",
            "SDS580-485",
            0,
            "g/L",
            "TREATMENT",
            "2013-12-15",
            "2013-12-15",
            69,
            69
          ],
          [
            253,
            "CDISCPILOT01",
            "EC",
            "CDISC004",
            "DEV0004",
            70,
            "PLACEBO",
            "Y",
            "Y",
            5,
            "mL",
            "INJECTION",
            "QD",
            "SUBCUTANEOUS",
            "SDS580-485",
            0,
            "g/L",
            "TREATMENT",
            "2013-12-16",
            "2013-12-16",
            70,
            70
          ],
          [
            254,
            "CDISCPILOT01",
            "EC",
            "CDISC004",
            "DEV0004",
            71,
            "PLACEBO",
            "Y",
            "Y",
            5,
            "mL",
            "INJECTION",
            "QD",
            "SUBCUTANEOUS",
            "SDS580-485",
            0,
            "g/L",
            "TREATMENT",
            "2013-12-17",
            "2013-12-17",
            71,
            71
          ],
          [
            255,
            "CDISCPILOT01",
            "EC",
            "CDISC004",
            "DEV0004",
            72,
            "PLACEBO",
            "Y",
            "Y",
            5,
            "mL",
            "INJECTION",
            "QD",
            "SUBCUTANEOUS",
            "SDS580-485",
            0,
            "g/L",
            "TREATMENT",
            "2013-12-18",
            "2013-12-18",
            72,
            72
          ],
          [
            256,
            "CDISCPILOT01",
            "EC",
            "CDISC004",
            "DEV0004",
            73,
            "PLACEBO",
            "Y",
            "Y",
            5,
            "mL",
            "INJECTION",
            "QD",
            "SUBCUTANEOUS",
            "SDS580-485",
            0,
            "g/L",
            "TREATMENT",
            "2013-12-19",
            "2013-12-19",
            73,
            73
          ],
          [
            257,
            "CDISCPILOT01",
            "EC",
            "CDISC004",
            "DEV0004",
            74,
            "PLACEBO",
            "Y",
            "Y",
            5,
            "mL",
            "INJECTION",
            "QD",
            "SUBCUTANEOUS",
            "SDS580-485",
            0,
            "g/L",
            "TREATMENT",
            "2013-12-20",
            "2013-12-20",
            74,
            74
          ],
          [
            258,
            "CDISCPILOT01",
            "EC",
            "CDISC004",
            "DEV0004",
            75,
            "PLACEBO",
            "Y",
            "Y",
            5,
            "mL",
            "INJECTION",
            "QD",
            "SUBCUTANEOUS",
            "SDS580-485",
            0,
            "g/L",
            "TREATMENT",
            "2013-12-21",
            "2013-12-21",
            75,
            75
          ],
          [
            259,
            "CDISCPILOT01",
            "EC",
            "CDISC004",
            "DEV0004",
            76,
            "PLACEBO",
            "Y",
            "Y",
            5,
            "mL",
            "INJECTION",
            "QD",
            "SUBCUTANEOUS",
            "SDS580-485",
            0,
            "g/L",
            "TREATMENT",
            "2013-12-22",
            "2013-12-22",
            76,
            76
          ],
          [
            260,
            "CDISCPILOT01",
            "EC",
            "CDISC004",
            "DEV0004",
            77,
            "PLACEBO",
            "Y",
            "Y",
            5,
            "mL",
            "INJECTION",
            "QD",
            "SUBCUTANEOUS",
            "SDS580-485",
            0,
            "g/L",
            "TREATMENT",
            "2013-12-23",
            "2013-12-23",
            77,
            77
          ],
          [
            261,
            "CDISCPILOT01",
            "EC",
            "CDISC004",
            "DEV0004",
            78,
            "PLACEBO",
            "Y",
            "Y",
            5,
            "mL",
            "INJECTION",
            "QD",
            "SUBCUTANEOUS",
            "SDS580-485",
            0,
            "g/L",
            "TREATMENT",
            "2013-12-24",
            "2013-12-24",
            78,
            78
          ],
          [
            262,
            "CDISCPILOT01",
            "EC",
            "CDISC004",
            "DEV0004",
            79,
            "PLACEBO",
            "Y",
            "Y",
            5,
            "mL",
            "INJECTION",
            "QD",
            "SUBCUTANEOUS",
            "SDS580-485",
            0,
            "g/L",
            "TREATMENT",
            "2013-12-25",
            "2013-12-25",
            79,
            79
          ],
          [
            263,
            "CDISCPILOT01",
            "EC",
            "CDISC004",
            "DEV0004",
            80,
            "PLACEBO",
            "Y",
            "Y",
            5,
            "mL",
            "INJECTION",
            "QD",
            "SUBCUTANEOUS",
            "SDS580-485",
            0,
            "g/L",
            "TREATMENT",
            "2013-12-26",
            "2013-12-26",
            80,
            80
          ],
          [
            264,
            "CDISCPILOT01",
            "EC",
            "CDISC004",
            "DEV0004",
            81,
            "PLACEBO",
            "Y",
            "Y",
            5,
            "mL",
            "INJECTION",
            "QD",
            "SUBCUTANEOUS",
            "SDS580-485",
            0,
            "g/L",
            "TREATMENT",
            "2013-12-27",
            "2013-12-27",
            81,
            81
          ],
          [
            265,
            "CDISCPILOT01",
            "EC",
            "CDISC004",
            "DEV0004",
            82,
            "PLACEBO",
            "Y",
            "Y",
            5,
            "mL",
            "INJECTION",
            "QD",
            "SUBCUTANEOUS",
            "SDS580-485",
            0,
            "g/L",
            "TREATMENT",
            "2013-12-28",
            "2013-12-28",
            82,
            82
          ],
          [
            266,
            "CDISCPILOT01",
            "EC",
            "CDISC004",
            "DEV0004",
            83,
            "PLACEBO",
            "Y",
            "Y",
            5,
            "mL",
            "INJECTION",
            "QD",
            "SUBCUTANEOUS",
            "SDS580-485",
            0,
            "g/L",
            "TREATMENT",
            "2013-12-29",
            "2013-12-29",
            83,
            83
          ],
          [
            267,
            "CDISCPILOT01",
            "EC",
            "CDISC004",
            "DEV0004",
            84,
            "PLACEBO",
            "Y",
            "Y",
            5,
            "mL",
            "INJECTION",
            "QD",
            "SUBCUTANEOUS",
            "SDS580-485",
            0,
            "g/L",
            "TREATMENT",
            "2013-12-30",
            "2013-12-30",
            84,
            84
          ],
          [
            268,
            "CDISCPILOT01",
            "EC",
            "CDISC004",
            "DEV0004",
            85,
            "PLACEBO",
            "Y",
            "Y",
            5,
            "mL",
            "INJECTION",
            "QD",
            "SUBCUTANEOUS",
            "SDS580-485",
            0,
            "g/L",
            "TREATMENT",
            "2013-12-31",
            "2013-12-31",
            85,
            85
          ],
          [
            269,
            "CDISCPILOT01",
            "EC",
            "CDISC004",
            "DEV0004",
            86,
            "PLACEBO",
            "Y",
            "Y",
            5,
            "mL",
            "INJECTION",
            "QD",
            "SUBCUTANEOUS",
            "SDS580-485",
            0,
            "g/L",
            "TREATMENT",
            "2014-01-01",
            "2014-01-01",
            86,
            86
          ],
          [
            270,
            "CDISCPILOT01",
            "EC",
            "CDISC004",
            "DEV0004",
            87,
            "PLACEBO",
            "Y",
            "Y",
            5,
            "mL",
            "INJECTION",
            "QD",
            "SUBCUTANEOUS",
            "SDS580-485",
            0,
            "g/L",
            "TREATMENT",
            "2014-01-02",
            "2014-01-02",
            87,
            87
          ],
          [
            271,
            "CDISCPILOT01",
            "EC",
            "CDISC004",
            "DEV0004",
            88,
            "PLACEBO",
            "Y",
            "Y",
            5,
            "mL",
            "INJECTION",
            "QD",
            "SUBCUTANEOUS",
            "SDS580-485",
            0,
            "g/L",
            "TREATMENT",
            "2014-01-03",
            "2014-01-03",
            88,
            88
          ],
          [
            272,
            "CDISCPILOT01",
            "EC",
            "CDISC004",
            "DEV0004",
            89,
            "PLACEBO",
            "Y",
            "Y",
            5,
            "mL",
            "INJECTION",
            "QD",
            "SUBCUTANEOUS",
            "SDS580-485",
            0,
            "g/L",
            "TREATMENT",
            "2014-01-04",
            "2014-01-04",
            89,
            89
          ],
          [
            273,
            "CDISCPILOT01",
            "EC",
            "CDISC004",
            "DEV0004",
            90,
            "PLACEBO",
            "Y",
            "Y",
            5,
            "mL",
            "INJECTION",
            "QD",
            "SUBCUTANEOUS",
            "SDS580-485",
            0,
            "g/L",
            "TREATMENT",
            "2014-01-05",
            "2014-01-05",
            90,
            90
          ],
          [
            274,
            "CDISCPILOT01",
            "EC",
            "CDISC004",
            "DEV0004",
            91,
            "PLACEBO",
            "Y",
            "Y",
            5,
            "mL",
            "INJECTION",
            "QD",
            "SUBCUTANEOUS",
            "SDS580-485",
            0,
            "g/L",
            "TREATMENT",
            "2014-01-06",
            "2014-01-06",
            91,
            91
          ],
          [
            275,
            "CDISCPILOT01",
            "EC",
            "CDISC004",
            "DEV0004",
            92,
            "PLACEBO",
            "Y",
            "Y",
            5,
            "mL",
            "INJECTION",
            "QD",
            "SUBCUTANEOUS",
            "SDS580-485",
            0,
            "g/L",
            "TREATMENT",
            "2014-01-07",
            "2014-01-07",
            92,
            92
          ],
          [
            276,
            "CDISCPILOT01",
            "EC",
            "CDISC004",
            "DEV0004",
            93,
            "PLACEBO",
            "Y",
            "Y",
            5,
            "mL",
            "INJECTION",
            "QD",
            "SUBCUTANEOUS",
            "SDS580-485",
            0,
            "g/L",
            "TREATMENT",
            "2014-01-08",
            "2014-01-08",
            93,
            93
          ],
          [
            277,
            "CDISCPILOT01",
            "EC",
            "CDISC004",
            "DEV0004",
            94,
            "PLACEBO",
            "Y",
            "Y",
            5,
            "mL",
            "INJECTION",
            "QD",
            "SUBCUTANEOUS",
            "SDS580-485",
            0,
            "g/L",
            "TREATMENT",
            "2014-01-09",
            "2014-01-09",
            94,
            94
          ],
          [
            278,
            "CDISCPILOT01",
            "EC",
            "CDISC004",
            "DEV0004",
            95,
            "PLACEBO",
            "Y",
            "Y",
            5,
            "mL",
            "INJECTION",
            "QD",
            "SUBCUTANEOUS",
            "SDS580-485",
            0,
            "g/L",
            "TREATMENT",
            "2014-01-10",
            "2014-01-10",
            95,
            95
          ],
          [
            279,
            "CDISCPILOT01",
            "EC",
            "CDISC004",
            "DEV0004",
            96,
            "PLACEBO",
            "Y",
            "Y",
            5,
            "mL",
            "INJECTION",
            "QD",
            "SUBCUTANEOUS",
            "SDS580-485",
            0,
            "g/L",
            "TREATMENT",
            "2014-01-11",
            "2014-01-11",
            96,
            96
          ],
          [
            280,
            "CDISCPILOT01",
            "EC",
            "CDISC004",
            "DEV0004",
            97,
            "PLACEBO",
            "Y",
            "Y",
            5,
            "mL",
            "INJECTION",
            "QD",
            "SUBCUTANEOUS",
            "SDS580-485",
            0,
            "g/L",
            "TREATMENT",
            "2014-01-12",
            "2014-01-12",
            97,
            97
          ],
          [
            281,
            "CDISCPILOT01",
            "EC",
            "CDISC004",
            "DEV0004",
            98,
            "PLACEBO",
            "Y",
            "Y",
            5,
            "mL",
            "INJECTION",
            "QD",
            "SUBCUTANEOUS",
            "SDS580-485",
            0,
            "g/L",
            "TREATMENT",
            "2014-01-13",
            "2014-01-13",
            98,
            98
          ],
          [
            282,
            "CDISCPILOT01",
            "EC",
            "CDISC004",
            "DEV0004",
            99,
            "PLACEBO",
            "Y",
            "Y",
            5,
            "mL",
            "INJECTION",
            "QD",
            "SUBCUTANEOUS",
            "SDS580-485",
            0,
            "g/L",
            "TREATMENT",
            "2014-01-14",
            "2014-01-14",
            99,
            99
          ],
          [
            283,
            "CDISCPILOT01",
            "EC",
            "CDISC004",
            "DEV0004",
            100,
            "PLACEBO",
            "Y",
            "Y",
            5,
            "mL",
            "INJECTION",
            "QD",
            "SUBCUTANEOUS",
            "SDS580-485",
            0,
            "g/L",
            "TREATMENT",
            "2014-01-15",
            "2014-01-15",
            100,
            100
          ],
          [
            284,
            "CDISCPILOT01",
            "EC",
            "CDISC004",
            "DEV0004",
            101,
            "PLACEBO",
            "Y",
            "Y",
            5,
            "mL",
            "INJECTION",
            "QD",
            "SUBCUTANEOUS",
            "SDS580-485",
            0,
            "g/L",
            "TREATMENT",
            "2014-01-16",
            "2014-01-16",
            101,
            101
          ],
          [
            285,
            "CDISCPILOT01",
            "EC",
            "CDISC004",
            "DEV0004",
            102,
            "PLACEBO",
            "Y",
            "Y",
            5,
            "mL",
            "INJECTION",
            "QD",
            "SUBCUTANEOUS",
            "SDS580-485",
            0,
            "g/L",
            "TREATMENT",
            "2014-01-17",
            "2014-01-17",
            102,
            102
          ],
          [
            286,
            "CDISCPILOT01",
            "EC",
            "CDISC004",
            "DEV0004",
            103,
            "PLACEBO",
            "Y",
            "Y",
            5,
            "mL",
            "INJECTION",
            "QD",
            "SUBCUTANEOUS",
            "SDS580-485",
            0,
            "g/L",
            "TREATMENT",
            "2014-01-18",
            "2014-01-18",
            103,
            103
          ],
          [
            287,
            "CDISCPILOT01",
            "EC",
            "CDISC004",
            "DEV0004",
            104,
            "PLACEBO",
            "Y",
            "Y",
            5,
            "mL",
            "INJECTION",
            "QD",
            "SUBCUTANEOUS",
            "SDS580-485",
            0,
            "g/L",
            "TREATMENT",
            "2014-01-19",
            "2014-01-19",
            104,
            104
          ],
          [
            288,
            "CDISCPILOT01",
            "EC",
            "CDISC004",
            "DEV0004",
            105,
            "PLACEBO",
            "Y",
            "Y",
            5,
            "mL",
            "INJECTION",
            "QD",
            "SUBCUTANEOUS",
            "SDS580-485",
            0,
            "g/L",
            "TREATMENT",
            "2014-01-20",
            "2014-01-20",
            105,
            105
          ],
          [
            289,
            "CDISCPILOT01",
            "EC",
            "CDISC004",
            "DEV0004",
            106,
            "PLACEBO",
            "Y",
            "Y",
            5,
            "mL",
            "INJECTION",
            "QD",
            "SUBCUTANEOUS",
            "SDS580-485",
            0,
            "g/L",
            "TREATMENT",
            "2014-01-21",
            "2014-01-21",
            106,
            106
          ],
          [
            290,
            "CDISCPILOT01",
            "EC",
            "CDISC004",
            "DEV0004",
            107,
            "PLACEBO",
            "Y",
            "Y",
            5,
            "mL",
            "INJECTION",
            "QD",
            "SUBCUTANEOUS",
            "SDS580-485",
            0,
            "g/L",
            "TREATMENT",
            "2014-01-22",
            "2014-01-22",
            107,
            107
          ],
          [
            291,
            "CDISCPILOT01",
            "EC",
            "CDISC004",
            "DEV0004",
            108,
            "PLACEBO",
            "Y",
            "Y",
            5,
            "mL",
            "INJECTION",
            "QD",
            "SUBCUTANEOUS",
            "SDS580-485",
            0,
            "g/L",
            "TREATMENT",
            "2014-01-23",
            "2014-01-23",
            108,
            108
          ],
          [
            292,
            "CDISCPILOT01",
            "EC",
            "CDISC004",
            "DEV0004",
            109,
            "PLACEBO",
            "Y",
            "Y",
            5,
            "mL",
            "INJECTION",
            "QD",
            "SUBCUTANEOUS",
            "SDS580-485",
            0,
            "g/L",
            "TREATMENT",
            "2014-01-24",
            "2014-01-24",
            109,
            109
          ],
          [
            293,
            "CDISCPILOT01",
            "EC",
            "CDISC004",
            "DEV0004",
            110,
            "PLACEBO",
            "Y",
            "Y",
            5,
            "mL",
            "INJECTION",
            "QD",
            "SUBCUTANEOUS",
            "SDS580-485",
            0,
            "g/L",
            "TREATMENT",
            "2014-01-25",
            "2014-01-25",
            110,
            110
          ],
          [
            294,
            "CDISCPILOT01",
            "EC",
            "CDISC004",
            "DEV0004",
            111,
            "PLACEBO",
            "Y",
            "Y",
            5,
            "mL",
            "INJECTION",
            "QD",
            "SUBCUTANEOUS",
            "SDS580-485",
            0,
            "g/L",
            "TREATMENT",
            "2014-01-26",
            "2014-01-26",
            111,
            111
          ],
          [
            295,
            "CDISCPILOT01",
            "EC",
            "CDISC004",
            "DEV0004",
            112,
            "PLACEBO",
            "Y",
            "Y",
            5,
            "mL",
            "INJECTION",
            "QD",
            "SUBCUTANEOUS",
            "SDS580-485",
            0,
            "g/L",
            "TREATMENT",
            "2014-01-27",
            "2014-01-27",
            112,
            112
          ],
          [
            296,
            "CDISCPILOT01",
            "EC",
            "CDISC004",
            "DEV0004",
            113,
            "PLACEBO",
            "Y",
            "Y",
            5,
            "mL",
            "INJECTION",
            "QD",
            "SUBCUTANEOUS",
            "SDS580-485",
            0,
            "g/L",
            "TREATMENT",
            "2014-01-28",
            "2014-01-28",
            113,
            113
          ],
          [
            297,
            "CDISCPILOT01",
            "EC",
            "CDISC004",
            "DEV0004",
            114,
            "PLACEBO",
            "Y",
            "Y",
            5,
            "mL",
            "INJECTION",
            "QD",
            "SUBCUTANEOUS",
            "SDS580-485",
            0,
            "g/L",
            "TREATMENT",
            "2014-01-29",
            "2014-01-29",
            114,
            114
          ],
          [
            298,
            "CDISCPILOT01",
            "EC",
            "CDISC004",
            "DEV0004",
            115,
            "PLACEBO",
            "Y",
            "Y",
            5,
            "mL",
            "INJECTION",
            "QD",
            "SUBCUTANEOUS",
            "SDS580-485",
            0,
            "g/L",
            "TREATMENT",
            "2014-01-30",
            "2014-01-30",
            115,
            115
          ],
          [
            299,
            "CDISCPILOT01",
            "EC",
            "CDISC004",
            "DEV0004",
            116,
            "PLACEBO",
            "Y",
            "Y",
            5,
            "mL",
            "INJECTION",
            "QD",
            "SUBCUTANEOUS",
            "SDS580-485",
            0,
            "g/L",
            "TREATMENT",
            "2014-01-31",
            "2014-01-31",
            116,
            116
          ],
          [
            300,
            "CDISCPILOT01",
            "EC",
            "CDISC004",
            "DEV0004",
            117,
            "PLACEBO",
            "Y",
            "Y",
            5,
            "mL",
            "INJECTION",
            "QD",
            "SUBCUTANEOUS",
            "SDS580-485",
            0,
            "g/L",
            "TREATMENT",
            "2014-02-01",
            "2014-02-01",
            117,
            117
          ],
          [
            301,
            "CDISCPILOT01",
            "EC",
            "CDISC004",
            "DEV0004",
            118,
            "PLACEBO",
            "Y",
            "Y",
            5,
            "mL",
            "INJECTION",
            "QD",
            "SUBCUTANEOUS",
            "SDS580-485",
            0,
            "g/L",
            "TREATMENT",
            "2014-02-02",
            "2014-02-02",
            118,
            118
          ],
          [
            302,
            "CDISCPILOT01",
            "EC",
            "CDISC004",
            "DEV0004",
            119,
            "PLACEBO",
            "Y",
            "Y",
            5,
            "mL",
            "INJECTION",
            "QD",
            "SUBCUTANEOUS",
            "SDS580-485",
            0,
            "g/L",
            "TREATMENT",
            "2014-02-03",
            "2014-02-03",
            119,
            119
          ],
          [
            303,
            "CDISCPILOT01",
            "EC",
            "CDISC004",
            "DEV0004",
            120,
            "PLACEBO",
            "Y",
            "Y",
            5,
            "mL",
            "INJECTION",
            "QD",
            "SUBCUTANEOUS",
            "SDS580-485",
            0,
            "g/L",
            "TREATMENT",
            "2014-02-04",
            "2014-02-04",
            120,
            120
          ],
          [
            304,
            "CDISCPILOT01",
            "EC",
            "CDISC004",
            "DEV0004",
            121,
            "PLACEBO",
            "Y",
            "Y",
            5,
            "mL",
            "INJECTION",
            "QD",
            "SUBCUTANEOUS",
            "SDS580-485",
            0,
            "g/L",
            "TREATMENT",
            "2014-02-05",
            "2014-02-05",
            121,
            121
          ],
          [
            305,
            "CDISCPILOT01",
            "EC",
            "CDISC004",
            "DEV0004",
            122,
            "PLACEBO",
            "Y",
            "Y",
            5,
            "mL",
            "INJECTION",
            "QD",
            "SUBCUTANEOUS",
            "SDS580-485",
            0,
            "g/L",
            "TREATMENT",
            "2014-02-06",
            "2014-02-06",
            122,
            122
          ],
          [
            306,
            "CDISCPILOT01",
            "EC",
            "CDISC004",
            "DEV0004",
            123,
            "PLACEBO",
            "Y",
            "Y",
            5,
            "mL",
            "INJECTION",
            "QD",
            "SUBCUTANEOUS",
            "SDS580-485",
            0,
            "g/L",
            "TREATMENT",
            "2014-02-07",
            "2014-02-07",
            123,
            123
          ],
          [
            307,
            "CDISCPILOT01",
            "EC",
            "CDISC004",
            "DEV0004",
            124,
            "PLACEBO",
            "Y",
            "Y",
            5,
            "mL",
            "INJECTION",
            "QD",
            "SUBCUTANEOUS",
            "SDS580-485",
            0,
            "g/L",
            "TREATMENT",
            "2014-02-08",
            "2014-02-08",
            124,
            124
          ],
          [
            308,
            "CDISCPILOT01",
            "EC",
            "CDISC004",
            "DEV0004",
            125,
            "PLACEBO",
            "Y",
            "Y",
            5,
            "mL",
            "INJECTION",
            "QD",
            "SUBCUTANEOUS",
            "SDS580-485",
            0,
            "g/L",
            "TREATMENT",
            "2014-02-09",
            "2014-02-09",
            125,
            125
          ],
          [
            309,
            "CDISCPILOT01",
            "EC",
            "CDISC004",
            "DEV0004",
            126,
            "PLACEBO",
            "Y",
            "Y",
            5,
            "mL",
            "INJECTION",
            "QD",
            "SUBCUTANEOUS",
            "SDS580-485",
            0,
            "g/L",
            "TREATMENT",
            "2014-02-10",
            "2014-02-10",
            126,
            126
          ],
          [
            310,
            "CDISCPILOT01",
            "EC",
            "CDISC004",
            "DEV0004",
            127,
            "PLACEBO",
            "Y",
            "Y",
            5,
            "mL",
            "INJECTION",
            "QD",
            "SUBCUTANEOUS",
            "SDS580-485",
            0,
            "g/L",
            "TREATMENT",
            "2014-02-11",
            "2014-02-11",
            127,
            127
          ],
          [
            311,
            "CDISCPILOT01",
            "EC",
            "CDISC004",
            "DEV0004",
            128,
            "PLACEBO",
            "Y",
            "Y",
            5,
            "mL",
            "INJECTION",
            "QD",
            "SUBCUTANEOUS",
            "SDS580-485",
            0,
            "g/L",
            "TREATMENT",
            "2014-02-12",
            "2014-02-12",
            128,
            128
          ],
          [
            312,
            "CDISCPILOT01",
            "EC",
            "CDISC004",
            "DEV0004",
            129,
            "PLACEBO",
            "Y",
            "Y",
            5,
            "mL",
            "INJECTION",
            "QD",
            "SUBCUTANEOUS",
            "SDS580-485",
            0,
            "g/L",
            "TREATMENT",
            "2014-02-13",
            "2014-02-13",
            129,
            129
          ],
          [
            313,
            "CDISCPILOT01",
            "EC",
            "CDISC004",
            "DEV0004",
            130,
            "PLACEBO",
            "Y",
            "Y",
            5,
            "mL",
            "INJECTION",
            "QD",
            "SUBCUTANEOUS",
            "SDS580-485",
            0,
            "g/L",
            "TREATMENT",
            "2014-02-14",
            "2014-02-14",
            130,
            130
          ],
          [
            314,
            "CDISCPILOT01",
            "EC",
            "CDISC004",
            "DEV0004",
            131,
            "PLACEBO",
            "Y",
            "Y",
            5,
            "mL",
            "INJECTION",
            "QD",
            "SUBCUTANEOUS",
            "SDS580-485",
            0,
            "g/L",
            "TREATMENT",
            "2014-02-15",
            "2014-02-15",
            131,
            131
          ],
          [
            315,
            "CDISCPILOT01",
            "EC",
            "CDISC004",
            "DEV0004",
            132,
            "PLACEBO",
            "Y",
            "Y",
            5,
            "mL",
            "INJECTION",
            "QD",
            "SUBCUTANEOUS",
            "SDS580-485",
            0,
            "g/L",
            "TREATMENT",
            "2014-02-16",
            "2014-02-16",
            132,
            132
          ],
          [
            316,
            "CDISCPILOT01",
            "EC",
            "CDISC004",
            "DEV0004",
            133,
            "PLACEBO",
            "Y",
            "Y",
            5,
            "mL",
            "INJECTION",
            "QD",
            "SUBCUTANEOUS",
            "SDS580-485",
            0,
            "g/L",
            "TREATMENT",
            "2014-02-17",
            "2014-02-17",
            133,
            133
          ],
          [
            317,
            "CDISCPILOT01",
            "EC",
            "CDISC004",
            "DEV0004",
            134,
            "PLACEBO",
            "Y",
            "Y",
            5,
            "mL",
            "INJECTION",
            "QD",
            "SUBCUTANEOUS",
            "SDS580-485",
            0,
            "g/L",
            "TREATMENT",
            "2014-02-18",
            "2014-02-18",
            134,
            134
          ],
          [
            318,
            "CDISCPILOT01",
            "EC",
            "CDISC004",
            "DEV0004",
            135,
            "PLACEBO",
            "Y",
            "Y",
            5,
            "mL",
            "INJECTION",
            "QD",
            "SUBCUTANEOUS",
            "SDS580-485",
            0,
            "g/L",
            "TREATMENT",
            "2014-02-19",
            "2014-02-19",
            135,
            135
          ],
          [
            319,
            "CDISCPILOT01",
            "EC",
            "CDISC004",
            "DEV0004",
            136,
            "PLACEBO",
            "Y",
            "Y",
            5,
            "mL",
            "INJECTION",
            "QD",
            "SUBCUTANEOUS",
            "SDS580-485",
            0,
            "g/L",
            "TREATMENT",
            "2014-02-20",
            "2014-02-20",
            136,
            136
          ],
          [
            320,
            "CDISCPILOT01",
            "EC",
            "CDISC004",
            "DEV0004",
            137,
            "PLACEBO",
            "Y",
            "Y",
            5,
            "mL",
            "INJECTION",
            "QD",
            "SUBCUTANEOUS",
            "SDS580-485",
            0,
            "g/L",
            "TREATMENT",
            "2014-02-21",
            "2014-02-21",
            137,
            137
          ],
          [
            321,
            "CDISCPILOT01",
            "EC",
            "CDISC004",
            "DEV0004",
            138,
            "PLACEBO",
            "Y",
            "Y",
            5,
            "mL",
            "INJECTION",
            "QD",
            "SUBCUTANEOUS",
            "SDS580-485",
            0,
            "g/L",
            "TREATMENT",
            "2014-02-22",
            "2014-02-22",
            138,
            138
          ],
          [
            322,
            "CDISCPILOT01",
            "EC",
            "CDISC004",
            "DEV0004",
            139,
            "PLACEBO",
            "Y",
            "Y",
            5,
            "mL",
            "INJECTION",
            "QD",
            "SUBCUTANEOUS",
            "SDS580-485",
            0,
            "g/L",
            "TREATMENT",
            "2014-02-23",
            "2014-02-23",
            139,
            139
          ],
          [
            323,
            "CDISCPILOT01",
            "EC",
            "CDISC004",
            "DEV0004",
            140,
            "PLACEBO",
            "Y",
            "Y",
            5,
            "mL",
            "INJECTION",
            "QD",
            "SUBCUTANEOUS",
            "SDS580-485",
            0,
            "g/L",
            "TREATMENT",
            "2014-02-24",
            "2014-02-24",
            140,
            140
          ],
          [
            324,
            "CDISCPILOT01",
            "EC",
            "CDISC004",
            "DEV0004",
            141,
            "PLACEBO",
            "Y",
            "Y",
            5,
            "mL",
            "INJECTION",
            "QD",
            "SUBCUTANEOUS",
            "SDS580-485",
            0,
            "g/L",
            "TREATMENT",
            "2014-02-25",
            "2014-02-25",
            141,
            141
          ],
          [
            325,
            "CDISCPILOT01",
            "EC",
            "CDISC004",
            "DEV0004",
            142,
            "PLACEBO",
            "Y",
            "Y",
            5,
            "mL",
            "INJECTION",
            "QD",
            "SUBCUTANEOUS",
            "SDS580-485",
            0,
            "g/L",
            "TREATMENT",
            "2014-02-26",
            "2014-02-26",
            142,
            142
          ],
          [
            326,
            "CDISCPILOT01",
            "EC",
            "CDISC004",
            "DEV0004",
            143,
            "PLACEBO",
            "Y",
            "Y",
            5,
            "mL",
            "INJECTION",
            "QD",
            "SUBCUTANEOUS",
            "SDS580-485",
            0,
            "g/L",
            "TREATMENT",
            "2014-02-27",
            "2014-02-27",
            143,
            143
          ],
          [
            327,
            "CDISCPILOT01",
            "EC",
            "CDISC004",
            "DEV0004",
            144,
            "PLACEBO",
            "Y",
            "Y",
            5,
            "mL",
            "INJECTION",
            "QD",
            "SUBCUTANEOUS",
            "SDS580-485",
            0,
            "g/L",
            "TREATMENT",
            "2014-02-28",
            "2014-02-28",
            144,
            144
          ],
          [
            328,
            "CDISCPILOT01",
            "EC",
            "CDISC004",
            "DEV0004",
            145,
            "PLACEBO",
            "Y",
            "Y",
            5,
            "mL",
            "INJECTION",
            "QD",
            "SUBCUTANEOUS",
            "SDS580-485",
            0,
            "g/L",
            "TREATMENT",
            "2014-03-01",
            "2014-03-01",
            145,
            145
          ],
          [
            329,
            "CDISCPILOT01",
            "EC",
            "CDISC004",
            "DEV0004",
            146,
            "PLACEBO",
            "Y",
            "Y",
            5,
            "mL",
            "INJECTION",
            "QD",
            "SUBCUTANEOUS",
            "SDS580-485",
            0,
            "g/L",
            "TREATMENT",
            "2014-03-02",
            "2014-03-02",
            146,
            146
          ],
          [
            330,
            "CDISCPILOT01",
            "EC",
            "CDISC004",
            "DEV0004",
            147,
            "PLACEBO",
            "Y",
            "Y",
            5,
            "mL",
            "INJECTION",
            "QD",
            "SUBCUTANEOUS",
            "SDS580-485",
            0,
            "g/L",
            "TREATMENT",
            "2014-03-03",
            "2014-03-03",
            147,
            147
          ],
          [
            331,
            "CDISCPILOT01",
            "EC",
            "CDISC004",
            "DEV0004",
            148,
            "PLACEBO",
            "Y",
            "Y",
            5,
            "mL",
            "INJECTION",
            "QD",
            "SUBCUTANEOUS",
            "SDS580-485",
            0,
            "g/L",
            "TREATMENT",
            "2014-03-04",
            "2014-03-04",
            148,
            148
          ],
          [
            332,
            "CDISCPILOT01",
            "EC",
            "CDISC004",
            "DEV0004",
            149,
            "PLACEBO",
            "Y",
            "Y",
            5,
            "mL",
            "INJECTION",
            "QD",
            "SUBCUTANEOUS",
            "SDS580-485",
            0,
            "g/L",
            "TREATMENT",
            "2014-03-05",
            "2014-03-05",
            149,
            149
          ],
          [
            333,
            "CDISCPILOT01",
            "EC",
            "CDISC004",
            "DEV0004",
            150,
            "PLACEBO",
            "Y",
            "Y",
            5,
            "mL",
            "INJECTION",
            "QD",
            "SUBCUTANEOUS",
            "SDS580-485",
            0,
            "g/L",
            "TREATMENT",
            "2014-03-06",
            "2014-03-06",
            150,
            150
          ],
          [
            334,
            "CDISCPILOT01",
            "EC",
            "CDISC004",
            "DEV0004",
            151,
            "PLACEBO",
            "Y",
            "Y",
            5,
            "mL",
            "INJECTION",
            "QD",
            "SUBCUTANEOUS",
            "SDS580-485",
            0,
            "g/L",
            "TREATMENT",
            "2014-03-07",
            "2014-03-07",
            151,
            151
          ],
          [
            335,
            "CDISCPILOT01",
            "EC",
            "CDISC004",
            "DEV0004",
            152,
            "PLACEBO",
            "Y",
            "Y",
            5,
            "mL",
            "INJECTION",
            "QD",
            "SUBCUTANEOUS",
            "SDS580-485",
            0,
            "g/L",
            "TREATMENT",
            "2014-03-08",
            "2014-03-08",
            152,
            152
          ],
          [
            336,
            "CDISCPILOT01",
            "EC",
            "CDISC004",
            "DEV0004",
            153,
            "PLACEBO",
            "Y",
            "Y",
            5,
            "mL",
            "INJECTION",
            "QD",
            "SUBCUTANEOUS",
            "SDS580-485",
            0,
            "g/L",
            "TREATMENT",
            "2014-03-09",
            "2014-03-09",
            153,
            153
          ],
          [
            337,
            "CDISCPILOT01",
            "EC",
            "CDISC004",
            "DEV0004",
            154,
            "PLACEBO",
            "Y",
            "Y",
            5,
            "mL",
            "INJECTION",
            "QD",
            "SUBCUTANEOUS",
            "SDS580-485",
            0,
            "g/L",
            "TREATMENT",
            "2014-03-10",
            "2014-03-10",
            154,
            154
          ],
          [
            338,
            "CDISCPILOT01",
            "EC",
            "CDISC004",
            "DEV0004",
            155,
            "PLACEBO",
            "Y",
            "Y",
            5,
            "mL",
            "INJECTION",
            "QD",
            "SUBCUTANEOUS",
            "SDS580-485",
            0,
            "g/L",
            "TREATMENT",
            "2014-03-11",
            "2014-03-11",
            155,
            155
          ],
          [
            339,
            "CDISCPILOT01",
            "EC",
            "CDISC004",
            "DEV0004",
            156,
            "PLACEBO",
            "Y",
            "Y",
            5,
            "mL",
            "INJECTION",
            "QD",
            "SUBCUTANEOUS",
            "SDS580-485",
            0,
            "g/L",
            "TREATMENT",
            "2014-03-12",
            "2014-03-12",
            156,
            156
          ],
          [
            340,
            "CDISCPILOT01",
            "EC",
            "CDISC004",
            "DEV0004",
            157,
            "PLACEBO",
            "Y",
            "Y",
            5,
            "mL",
            "INJECTION",
            "QD",
            "SUBCUTANEOUS",
            "SDS580-485",
            0,
            "g/L",
            "TREATMENT",
            "2014-03-13",
            "2014-03-13",
            157,
            157
          ],
          [
            341,
            "CDISCPILOT01",
            "EC",
            "CDISC004",
            "DEV0004",
            158,
            "PLACEBO",
            "Y",
            "Y",
            5,
            "mL",
            "INJECTION",
            "QD",
            "SUBCUTANEOUS",
            "SDS580-485",
            0,
            "g/L",
            "TREATMENT",
            "2014-03-14",
            "2014-03-14",
            158,
            158
          ],
          [
            342,
            "CDISCPILOT01",
            "EC",
            "CDISC004",
            "DEV0004",
            159,
            "PLACEBO",
            "Y",
            "Y",
            5,
            "mL",
            "INJECTION",
            "QD",
            "SUBCUTANEOUS",
            "SDS580-485",
            0,
            "g/L",
            "TREATMENT",
            "2014-03-15",
            "2014-03-15",
            159,
            159
          ],
          [
            343,
            "CDISCPILOT01",
            "EC",
            "CDISC004",
            "DEV0004",
            160,
            "PLACEBO",
            "Y",
            "Y",
            5,
            "mL",
            "INJECTION",
            "QD",
            "SUBCUTANEOUS",
            "SDS580-485",
            0,
            "g/L",
            "TREATMENT",
            "2014-03-16",
            "2014-03-16",
            160,
            160
          ],
          [
            344,
            "CDISCPILOT01",
            "EC",
            "CDISC004",
            "DEV0004",
            161,
            "PLACEBO",
            "Y",
            "Y",
            5,
            "mL",
            "INJECTION",
            "QD",
            "SUBCUTANEOUS",
            "SDS580-485",
            0,
            "g/L",
            "TREATMENT",
            "2014-03-17",
            "2014-03-17",
            161,
            161
          ],
          [
            345,
            "CDISCPILOT01",
            "EC",
            "CDISC004",
            "DEV0004",
            162,
            "PLACEBO",
            "Y",
            "Y",
            5,
            "mL",
            "INJECTION",
            "QD",
            "SUBCUTANEOUS",
            "SDS580-485",
            0,
            "g/L",
            "TREATMENT",
            "2014-03-18",
            "2014-03-18",
            162,
            162
          ],
          [
            346,
            "CDISCPILOT01",
            "EC",
            "CDISC005",
            "DEV0005",
            1,
            "ZANOMALINE",
            "Y",
            "Y",
            5,
            "mL",
            "INJECTION",
            "QD",
            "SUBCUTANEOUS",
            "SDS580-359",
            10.8,
            "g/L",
            "TREATMENT",
            "2013-02-04",
            "2013-02-04",
            1,
            1
          ],
          [
            347,
            "CDISCPILOT01",
            "EC",
            "CDISC005",
            "DEV0005",
            2,
            "ZANOMALINE",
            "Y",
            "Y",
            5,
            "mL",
            "INJECTION",
            "QD",
            "SUBCUTANEOUS",
            "SDS580-359",
            10.8,
            "g/L",
            "TREATMENT",
            "2013-02-05",
            "2013-02-05",
            2,
            2
          ],
          [
            348,
            "CDISCPILOT01",
            "EC",
            "CDISC005",
            "DEV0005",
            3,
            "ZANOMALINE",
            "Y",
            "Y",
            5,
            "mL",
            "INJECTION",
            "QD",
            "SUBCUTANEOUS",
            "SDS580-359",
            10.8,
            "g/L",
            "TREATMENT",
            "2013-02-06",
            "2013-02-06",
            3,
            3
          ],
          [
            349,
            "CDISCPILOT01",
            "EC",
            "CDISC005",
            "DEV0005",
            4,
            "ZANOMALINE",
            "Y",
            "Y",
            5,
            "mL",
            "INJECTION",
            "QD",
            "SUBCUTANEOUS",
            "SDS580-359",
            10.8,
            "g/L",
            "TREATMENT",
            "2013-02-07",
            "2013-02-07",
            4,
            4
          ],
          [
            350,
            "CDISCPILOT01",
            "EC",
            "CDISC005",
            "DEV0005",
            5,
            "ZANOMALINE",
            "Y",
            "Y",
            5,
            "mL",
            "INJECTION",
            "QD",
            "SUBCUTANEOUS",
            "SDS580-359",
            10.8,
            "g/L",
            "TREATMENT",
            "2013-02-08",
            "2013-02-08",
            5,
            5
          ],
          [
            351,
            "CDISCPILOT01",
            "EC",
            "CDISC005",
            "DEV0005",
            6,
            "ZANOMALINE",
            "Y",
            "Y",
            5,
            "mL",
            "INJECTION",
            "QD",
            "SUBCUTANEOUS",
            "SDS580-359",
            10.8,
            "g/L",
            "TREATMENT",
            "2013-02-09",
            "2013-02-09",
            6,
            6
          ],
          [
            352,
            "CDISCPILOT01",
            "EC",
            "CDISC005",
            "DEV0005",
            7,
            "ZANOMALINE",
            "Y",
            "Y",
            5,
            "mL",
            "INJECTION",
            "QD",
            "SUBCUTANEOUS",
            "SDS580-359",
            10.8,
            "g/L",
            "TREATMENT",
            "2013-02-10",
            "2013-02-10",
            7,
            7
          ],
          [
            353,
            "CDISCPILOT01",
            "EC",
            "CDISC005",
            "DEV0005",
            8,
            "ZANOMALINE",
            "Y",
            "Y",
            5,
            "mL",
            "INJECTION",
            "QD",
            "SUBCUTANEOUS",
            "SDS580-359",
            10.8,
            "g/L",
            "TREATMENT",
            "2013-02-11",
            "2013-02-11",
            8,
            8
          ],
          [
            354,
            "CDISCPILOT01",
            "EC",
            "CDISC005",
            "DEV0005",
            9,
            "ZANOMALINE",
            "Y",
            "Y",
            5,
            "mL",
            "INJECTION",
            "QD",
            "SUBCUTANEOUS",
            "SDS580-359",
            10.8,
            "g/L",
            "TREATMENT",
            "2013-02-12",
            "2013-02-12",
            9,
            9
          ],
          [
            355,
            "CDISCPILOT01",
            "EC",
            "CDISC005",
            "DEV0005",
            10,
            "ZANOMALINE",
            "Y",
            "Y",
            5,
            "mL",
            "INJECTION",
            "QD",
            "SUBCUTANEOUS",
            "SDS580-359",
            10.8,
            "g/L",
            "TREATMENT",
            "2013-02-13",
            "2013-02-13",
            10,
            10
          ],
          [
            356,
            "CDISCPILOT01",
            "EC",
            "CDISC005",
            "DEV0005",
            11,
            "ZANOMALINE",
            "Y",
            "Y",
            5,
            "mL",
            "INJECTION",
            "QD",
            "SUBCUTANEOUS",
            "SDS580-359",
            10.8,
            "g/L",
            "TREATMENT",
            "2013-02-14",
            "2013-02-14",
            11,
            11
          ],
          [
            357,
            "CDISCPILOT01",
            "EC",
            "CDISC005",
            "DEV0005",
            12,
            "ZANOMALINE",
            "Y",
            "Y",
            5,
            "mL",
            "INJECTION",
            "QD",
            "SUBCUTANEOUS",
            "SDS580-359",
            10.8,
            "g/L",
            "TREATMENT",
            "2013-02-15",
            "2013-02-15",
            12,
            12
          ],
          [
            358,
            "CDISCPILOT01",
            "EC",
            "CDISC005",
            "DEV0005",
            13,
            "ZANOMALINE",
            "Y",
            "Y",
            5,
            "mL",
            "INJECTION",
            "QD",
            "SUBCUTANEOUS",
            "SDS580-359",
            10.8,
            "g/L",
            "TREATMENT",
            "2013-02-16",
            "2013-02-16",
            13,
            13
          ],
          [
            359,
            "CDISCPILOT01",
            "EC",
            "CDISC005",
            "DEV0005",
            14,
            "ZANOMALINE",
            "Y",
            "Y",
            5,
            "mL",
            "INJECTION",
            "QD",
            "SUBCUTANEOUS",
            "SDS580-359",
            10.8,
            "g/L",
            "TREATMENT",
            "2013-02-17",
            "2013-02-17",
            14,
            14
          ],
          [
            360,
            "CDISCPILOT01",
            "EC",
            "CDISC005",
            "DEV0005",
            15,
            "ZANOMALINE",
            "Y",
            "Y",
            5,
            "mL",
            "INJECTION",
            "QD",
            "SUBCUTANEOUS",
            "SDS580-359",
            10.8,
            "g/L",
            "TREATMENT",
            "2013-02-18",
            "2013-02-18",
            15,
            15
          ],
          [
            361,
            "CDISCPILOT01",
            "EC",
            "CDISC005",
            "DEV0005",
            16,
            "ZANOMALINE",
            "Y",
            "Y",
            5,
            "mL",
            "INJECTION",
            "QD",
            "SUBCUTANEOUS",
            "SDS580-359",
            10.8,
            "g/L",
            "TREATMENT",
            "2013-02-19",
            "2013-02-19",
            16,
            16
          ],
          [
            362,
            "CDISCPILOT01",
            "EC",
            "CDISC005",
            "DEV0005",
            17,
            "ZANOMALINE",
            "Y",
            "Y",
            5,
            "mL",
            "INJECTION",
            "QD",
            "SUBCUTANEOUS",
            "SDS580-983",
            16.2,
            "g/L",
            "TREATMENT",
            "2013-02-20",
            "2013-02-20",
            17,
            17
          ],
          [
            363,
            "CDISCPILOT01",
            "EC",
            "CDISC005",
            "DEV0005",
            18,
            "ZANOMALINE",
            "Y",
            "Y",
            5,
            "mL",
            "INJECTION",
            "QD",
            "SUBCUTANEOUS",
            "SDS580-983",
            16.2,
            "g/L",
            "TREATMENT",
            "2013-02-21",
            "2013-02-21",
            18,
            18
          ],
          [
            364,
            "CDISCPILOT01",
            "EC",
            "CDISC005",
            "DEV0005",
            19,
            "ZANOMALINE",
            "Y",
            "Y",
            5,
            "mL",
            "INJECTION",
            "QD",
            "SUBCUTANEOUS",
            "SDS580-983",
            16.2,
            "g/L",
            "TREATMENT",
            "2013-02-22",
            "2013-02-22",
            19,
            19
          ],
          [
            365,
            "CDISCPILOT01",
            "EC",
            "CDISC005",
            "DEV0005",
            20,
            "ZANOMALINE",
            "Y",
            "Y",
            5,
            "mL",
            "INJECTION",
            "QD",
            "SUBCUTANEOUS",
            "SDS580-983",
            16.2,
            "g/L",
            "TREATMENT",
            "2013-02-23",
            "2013-02-23",
            20,
            20
          ],
          [
            366,
            "CDISCPILOT01",
            "EC",
            "CDISC005",
            "DEV0005",
            21,
            "ZANOMALINE",
            "Y",
            "Y",
            5,
            "mL",
            "INJECTION",
            "QD",
            "SUBCUTANEOUS",
            "SDS580-983",
            16.2,
            "g/L",
            "TREATMENT",
            "2013-02-24",
            "2013-02-24",
            21,
            21
          ],
          [
            367,
            "CDISCPILOT01",
            "EC",
            "CDISC005",
            "DEV0005",
            22,
            "ZANOMALINE",
            "Y",
            "Y",
            5,
            "mL",
            "INJECTION",
            "QD",
            "SUBCUTANEOUS",
            "SDS580-983",
            16.2,
            "g/L",
            "TREATMENT",
            "2013-02-25",
            "2013-02-25",
            22,
            22
          ],
          [
            368,
            "CDISCPILOT01",
            "EC",
            "CDISC005",
            "DEV0005",
            23,
            "ZANOMALINE",
            "Y",
            "Y",
            5,
            "mL",
            "INJECTION",
            "QD",
            "SUBCUTANEOUS",
            "SDS580-983",
            16.2,
            "g/L",
            "TREATMENT",
            "2013-02-26",
            "2013-02-26",
            23,
            23
          ],
          [
            369,
            "CDISCPILOT01",
            "EC",
            "CDISC005",
            "DEV0005",
            24,
            "ZANOMALINE",
            "Y",
            "Y",
            5,
            "mL",
            "INJECTION",
            "QD",
            "SUBCUTANEOUS",
            "SDS580-983",
            16.2,
            "g/L",
            "TREATMENT",
            "2013-02-27",
            "2013-02-27",
            24,
            24
          ],
          [
            370,
            "CDISCPILOT01",
            "EC",
            "CDISC005",
            "DEV0005",
            25,
            "ZANOMALINE",
            "Y",
            "Y",
            5,
            "mL",
            "INJECTION",
            "QD",
            "SUBCUTANEOUS",
            "SDS580-983",
            16.2,
            "g/L",
            "TREATMENT",
            "2013-02-28",
            "2013-02-28",
            25,
            25
          ],
          [
            371,
            "CDISCPILOT01",
            "EC",
            "CDISC005",
            "DEV0005",
            26,
            "ZANOMALINE",
            "Y",
            "Y",
            5,
            "mL",
            "INJECTION",
            "QD",
            "SUBCUTANEOUS",
            "SDS580-983",
            16.2,
            "g/L",
            "TREATMENT",
            "2013-03-01",
            "2013-03-01",
            26,
            26
          ],
          [
            372,
            "CDISCPILOT01",
            "EC",
            "CDISC005",
            "DEV0005",
            27,
            "ZANOMALINE",
            "Y",
            "Y",
            5,
            "mL",
            "INJECTION",
            "QD",
            "SUBCUTANEOUS",
            "SDS580-983",
            16.2,
            "g/L",
            "TREATMENT",
            "2013-03-02",
            "2013-03-02",
            27,
            27
          ],
          [
            373,
            "CDISCPILOT01",
            "EC",
            "CDISC005",
            "DEV0005",
            28,
            "ZANOMALINE",
            "Y",
            "Y",
            5,
            "mL",
            "INJECTION",
            "QD",
            "SUBCUTANEOUS",
            "SDS580-983",
            16.2,
            "g/L",
            "TREATMENT",
            "2013-03-03",
            "2013-03-03",
            28,
            28
          ],
          [
            374,
            "CDISCPILOT01",
            "EC",
            "CDISC005",
            "DEV0005",
            29,
            "ZANOMALINE",
            "Y",
            "Y",
            5,
            "mL",
            "INJECTION",
            "QD",
            "SUBCUTANEOUS",
            "SDS580-983",
            16.2,
            "g/L",
            "TREATMENT",
            "2013-03-04",
            "2013-03-04",
            29,
            29
          ],
          [
            375,
            "CDISCPILOT01",
            "EC",
            "CDISC005",
            "DEV0005",
            30,
            "ZANOMALINE",
            "Y",
            "Y",
            5,
            "mL",
            "INJECTION",
            "QD",
            "SUBCUTANEOUS",
            "SDS580-983",
            16.2,
            "g/L",
            "TREATMENT",
            "2013-03-05",
            "2013-03-05",
            30,
            30
          ],
          [
            376,
            "CDISCPILOT01",
            "EC",
            "CDISC005",
            "DEV0005",
            31,
            "ZANOMALINE",
            "Y",
            "Y",
            5,
            "mL",
            "INJECTION",
            "QD",
            "SUBCUTANEOUS",
            "SDS580-983",
            16.2,
            "g/L",
            "TREATMENT",
            "2013-03-06",
            "2013-03-06",
            31,
            31
          ],
          [
            377,
            "CDISCPILOT01",
            "EC",
            "CDISC005",
            "DEV0005",
            32,
            "ZANOMALINE",
            "Y",
            "Y",
            5,
            "mL",
            "INJECTION",
            "QD",
            "SUBCUTANEOUS",
            "SDS580-983",
            16.2,
            "g/L",
            "TREATMENT",
            "2013-03-07",
            "2013-03-07",
            32,
            32
          ],
          [
            378,
            "CDISCPILOT01",
            "EC",
            "CDISC005",
            "DEV0005",
            33,
            "ZANOMALINE",
            "Y",
            "Y",
            5,
            "mL",
            "INJECTION",
            "QD",
            "SUBCUTANEOUS",
            "SDS580-983",
            16.2,
            "g/L",
            "TREATMENT",
            "2013-03-08",
            "2013-03-08",
            33,
            33
          ],
          [
            379,
            "CDISCPILOT01",
            "EC",
            "CDISC005",
            "DEV0005",
            34,
            "ZANOMALINE",
            "Y",
            "Y",
            5,
            "mL",
            "INJECTION",
            "QD",
            "SUBCUTANEOUS",
            "SDS580-983",
            16.2,
            "g/L",
            "TREATMENT",
            "2013-03-09",
            "2013-03-09",
            34,
            34
          ],
          [
            380,
            "CDISCPILOT01",
            "EC",
            "CDISC005",
            "DEV0005",
            35,
            "ZANOMALINE",
            "Y",
            "Y",
            5,
            "mL",
            "INJECTION",
            "QD",
            "SUBCUTANEOUS",
            "SDS580-983",
            16.2,
            "g/L",
            "TREATMENT",
            "2013-03-10",
            "2013-03-10",
            35,
            35
          ],
          [
            381,
            "CDISCPILOT01",
            "EC",
            "CDISC005",
            "DEV0005",
            36,
            "ZANOMALINE",
            "Y",
            "Y",
            5,
            "mL",
            "INJECTION",
            "QD",
            "SUBCUTANEOUS",
            "SDS580-983",
            16.2,
            "g/L",
            "TREATMENT",
            "2013-03-11",
            "2013-03-11",
            36,
            36
          ],
          [
            382,
            "CDISCPILOT01",
            "EC",
            "CDISC005",
            "DEV0005",
            37,
            "ZANOMALINE",
            "Y",
            "Y",
            5,
            "mL",
            "INJECTION",
            "QD",
            "SUBCUTANEOUS",
            "SDS580-983",
            16.2,
            "g/L",
            "TREATMENT",
            "2013-03-12",
            "2013-03-12",
            37,
            37
          ],
          [
            383,
            "CDISCPILOT01",
            "EC",
            "CDISC005",
            "DEV0005",
            38,
            "ZANOMALINE",
            "Y",
            "Y",
            5,
            "mL",
            "INJECTION",
            "QD",
            "SUBCUTANEOUS",
            "SDS580-983",
            16.2,
            "g/L",
            "TREATMENT",
            "2013-03-13",
            "2013-03-13",
            38,
            38
          ],
          [
            384,
            "CDISCPILOT01",
            "EC",
            "CDISC005",
            "DEV0005",
            39,
            "ZANOMALINE",
            "Y",
            "Y",
            5,
            "mL",
            "INJECTION",
            "QD",
            "SUBCUTANEOUS",
            "SDS580-983",
            16.2,
            "g/L",
            "TREATMENT",
            "2013-03-14",
            "2013-03-14",
            39,
            39
          ],
          [
            385,
            "CDISCPILOT01",
            "EC",
            "CDISC005",
            "DEV0005",
            40,
            "ZANOMALINE",
            "Y",
            "Y",
            5,
            "mL",
            "INJECTION",
            "QD",
            "SUBCUTANEOUS",
            "SDS580-983",
            16.2,
            "g/L",
            "TREATMENT",
            "2013-03-15",
            "2013-03-15",
            40,
            40
          ],
          [
            386,
            "CDISCPILOT01",
            "EC",
            "CDISC005",
            "DEV0005",
            41,
            "ZANOMALINE",
            "Y",
            "Y",
            5,
            "mL",
            "INJECTION",
            "QD",
            "SUBCUTANEOUS",
            "SDS580-983",
            16.2,
            "g/L",
            "TREATMENT",
            "2013-03-16",
            "2013-03-16",
            41,
            41
          ],
          [
            387,
            "CDISCPILOT01",
            "EC",
            "CDISC005",
            "DEV0005",
            42,
            "ZANOMALINE",
            "Y",
            "Y",
            5,
            "mL",
            "INJECTION",
            "QD",
            "SUBCUTANEOUS",
            "SDS580-983",
            16.2,
            "g/L",
            "TREATMENT",
            "2013-03-17",
            "2013-03-17",
            42,
            42
          ],
          [
            388,
            "CDISCPILOT01",
            "EC",
            "CDISC005",
            "DEV0005",
            43,
            "ZANOMALINE",
            "Y",
            "Y",
            5,
            "mL",
            "INJECTION",
            "QD",
            "SUBCUTANEOUS",
            "SDS580-983",
            16.2,
            "g/L",
            "TREATMENT",
            "2013-03-18",
            "2013-03-18",
            43,
            43
          ],
          [
            389,
            "CDISCPILOT01",
            "EC",
            "CDISC005",
            "DEV0005",
            44,
            "ZANOMALINE",
            "Y",
            "Y",
            5,
            "mL",
            "INJECTION",
            "QD",
            "SUBCUTANEOUS",
            "SDS580-983",
            16.2,
            "g/L",
            "TREATMENT",
            "2013-03-19",
            "2013-03-19",
            44,
            44
          ],
          [
            390,
            "CDISCPILOT01",
            "EC",
            "CDISC005",
            "DEV0005",
            45,
            "ZANOMALINE",
            "Y",
            "Y",
            5,
            "mL",
            "INJECTION",
            "QD",
            "SUBCUTANEOUS",
            "SDS580-983",
            16.2,
            "g/L",
            "TREATMENT",
            "2013-03-20",
            "2013-03-20",
            45,
            45
          ],
          [
            391,
            "CDISCPILOT01",
            "EC",
            "CDISC005",
            "DEV0005",
            46,
            "ZANOMALINE",
            "Y",
            "Y",
            5,
            "mL",
            "INJECTION",
            "QD",
            "SUBCUTANEOUS",
            "SDS580-983",
            16.2,
            "g/L",
            "TREATMENT",
            "2013-03-21",
            "2013-03-21",
            46,
            46
          ],
          [
            392,
            "CDISCPILOT01",
            "EC",
            "CDISC005",
            "DEV0005",
            47,
            "ZANOMALINE",
            "Y",
            "Y",
            5,
            "mL",
            "INJECTION",
            "QD",
            "SUBCUTANEOUS",
            "SDS580-983",
            16.2,
            "g/L",
            "TREATMENT",
            "2013-03-22",
            "2013-03-22",
            47,
            47
          ],
          [
            393,
            "CDISCPILOT01",
            "EC",
            "CDISC005",
            "DEV0005",
            48,
            "ZANOMALINE",
            "Y",
            "Y",
            5,
            "mL",
            "INJECTION",
            "QD",
            "SUBCUTANEOUS",
            "SDS580-983",
            16.2,
            "g/L",
            "TREATMENT",
            "2013-03-23",
            "2013-03-23",
            48,
            48
          ],
          [
            394,
            "CDISCPILOT01",
            "EC",
            "CDISC005",
            "DEV0005",
            49,
            "ZANOMALINE",
            "Y",
            "Y",
            5,
            "mL",
            "INJECTION",
            "QD",
            "SUBCUTANEOUS",
            "SDS580-983",
            16.2,
            "g/L",
            "TREATMENT",
            "2013-03-24",
            "2013-03-24",
            49,
            49
          ],
          [
            395,
            "CDISCPILOT01",
            "EC",
            "CDISC005",
            "DEV0005",
            50,
            "ZANOMALINE",
            "Y",
            "Y",
            5,
            "mL",
            "INJECTION",
            "QD",
            "SUBCUTANEOUS",
            "SDS580-983",
            16.2,
            "g/L",
            "TREATMENT",
            "2013-03-25",
            "2013-03-25",
            50,
            50
          ],
          [
            396,
            "CDISCPILOT01",
            "EC",
            "CDISC005",
            "DEV0005",
            51,
            "ZANOMALINE",
            "Y",
            "Y",
            5,
            "mL",
            "INJECTION",
            "QD",
            "SUBCUTANEOUS",
            "SDS580-983",
            16.2,
            "g/L",
            "TREATMENT",
            "2013-03-26",
            "2013-03-26",
            51,
            51
          ],
          [
            397,
            "CDISCPILOT01",
            "EC",
            "CDISC005",
            "DEV0005",
            52,
            "ZANOMALINE",
            "Y",
            "Y",
            5,
            "mL",
            "INJECTION",
            "QD",
            "SUBCUTANEOUS",
            "SDS580-983",
            16.2,
            "g/L",
            "TREATMENT",
            "2013-03-27",
            "2013-03-27",
            52,
            52
          ],
          [
            398,
            "CDISCPILOT01",
            "EC",
            "CDISC005",
            "DEV0005",
            53,
            "ZANOMALINE",
            "Y",
            "Y",
            5,
            "mL",
            "INJECTION",
            "QD",
            "SUBCUTANEOUS",
            "SDS580-983",
            16.2,
            "g/L",
            "TREATMENT",
            "2013-03-28",
            "2013-03-28",
            53,
            53
          ],
          [
            399,
            "CDISCPILOT01",
            "EC",
            "CDISC005",
            "DEV0005",
            54,
            "ZANOMALINE",
            "Y",
            "Y",
            5,
            "mL",
            "INJECTION",
            "QD",
            "SUBCUTANEOUS",
            "SDS580-983",
            16.2,
            "g/L",
            "TREATMENT",
            "2013-03-29",
            "2013-03-29",
            54,
            54
          ],
          [
            400,
            "CDISCPILOT01",
            "EC",
            "CDISC005",
            "DEV0005",
            55,
            "ZANOMALINE",
            "Y",
            "Y",
            5,
            "mL",
            "INJECTION",
            "QD",
            "SUBCUTANEOUS",
            "SDS580-983",
            16.2,
            "g/L",
            "TREATMENT",
            "2013-03-30",
            "2013-03-30",
            55,
            55
          ],
          [
            401,
            "CDISCPILOT01",
            "EC",
            "CDISC005",
            "DEV0005",
            56,
            "ZANOMALINE",
            "Y",
            "Y",
            5,
            "mL",
            "INJECTION",
            "QD",
            "SUBCUTANEOUS",
            "SDS580-983",
            16.2,
            "g/L",
            "TREATMENT",
            "2013-03-31",
            "2013-03-31",
            56,
            56
          ],
          [
            402,
            "CDISCPILOT01",
            "EC",
            "CDISC005",
            "DEV0005",
            57,
            "ZANOMALINE",
            "Y",
            "Y",
            5,
            "mL",
            "INJECTION",
            "QD",
            "SUBCUTANEOUS",
            "SDS580-983",
            16.2,
            "g/L",
            "TREATMENT",
            "2013-04-01",
            "2013-04-01",
            57,
            57
          ],
          [
            403,
            "CDISCPILOT01",
            "EC",
            "CDISC005",
            "DEV0005",
            58,
            "ZANOMALINE",
            "Y",
            "Y",
            5,
            "mL",
            "INJECTION",
            "QD",
            "SUBCUTANEOUS",
            "SDS580-983",
            16.2,
            "g/L",
            "TREATMENT",
            "2013-04-02",
            "2013-04-02",
            58,
            58
          ],
          [
            404,
            "CDISCPILOT01",
            "EC",
            "CDISC005",
            "DEV0005",
            59,
            "ZANOMALINE",
            "Y",
            "Y",
            5,
            "mL",
            "INJECTION",
            "QD",
            "SUBCUTANEOUS",
            "SDS580-983",
            16.2,
            "g/L",
            "TREATMENT",
            "2013-04-03",
            "2013-04-03",
            59,
            59
          ],
          [
            405,
            "CDISCPILOT01",
            "EC",
            "CDISC005",
            "DEV0005",
            60,
            "ZANOMALINE",
            "Y",
            "Y",
            5,
            "mL",
            "INJECTION",
            "QD",
