{
  "clinicalData": {
    "studyOID": "cdisc.com/CDISCPILOT01",
    "metaDataVersionOID": "MDV.MSGv2.0.SDTMIG.3.3.SDTM.1.7",
    "itemGroupData": {
      "IG.FA": {
        "records": 78,
        "name": "FA",
        "label": "Findings About Events or Interventions",
        "items": [
          {
            "OID": "ITEMGROUPDATASEQ",
            "name": "ITEMGROUPDATASEQ",
            "label": "Record identifier",
            "type": "integer"
          },
          {
            "OID": "IT.FA.STUDYID",
            "name": "STUDYID",
            "label": "Study Identifier",
            "type": "string",
            "length": 12
          },
          {
            "OID": "IT.FA.DOMAIN",
            "name": "DOMAIN",
            "label": "Domain Abbreviation",
            "type": "string",
            "length": 2
          },
          {
            "OID": "IT.FA.USUBJID",
            "name": "USUBJID",
            "label": "Unique Subject Identifier",
            "type": "string",
            "length": 8
          },
          {
            "OID": "IT.FA.FASEQ",
            "name": "FASEQ",
            "label": "Sequence Number",
            "type": "integer",
            "length": 3
          },
          {
            "OID": "IT.FA.FALNKGRP",
            "name": "FALNKGRP",
            "label": "Link Group ID",
            "type": "string",
            "length": 200
          },
          {
            "OID": "IT.FA.FATESTCD",
            "name": "FATESTCD",
            "label": "Findings About Test Short Name",
            "type": "string",
            "length": 5
          },
          {
            "OID": "IT.FA.FATEST",
            "name": "FATEST",
            "label": "Findings About Test Name",
            "type": "string",
            "length": 20
          },
          {
            "OID": "IT.FA.FAOBJ",
            "name": "FAOBJ",
            "label": "Object of the Observation",
            "type": "string",
            "length": 10
          },
          {
            "OID": "IT.FA.FACAT",
            "name": "FACAT",
            "label": "Category for Findings About",
            "type": "string",
            "length": 23
          },
          {
            "OID": "IT.FA.FAORRES",
            "name": "FAORRES",
            "label": "Result or Finding in Original Units",
            "type": "string",
            "length": 8
          },
          {
            "OID": "IT.FA.FASTRESC",
            "name": "FASTRESC",
            "label": "Character Result/Finding in Std Format",
            "type": "string",
            "length": 8
          },
          {
            "OID": "IT.FA.FALOC",
            "name": "FALOC",
            "label": "Location of the Finding About",
            "type": "string",
            "length": 3
          },
          {
            "OID": "IT.FA.VISITNUM",
            "name": "VISITNUM",
            "label": "Visit Number",
            "type": "float",
            "length": 8
          },
          {
            "OID": "IT.FA.EPOCH",
            "name": "EPOCH",
            "label": "Epoch",
            "type": "string",
            "length": 9
          },
          {
            "OID": "IT.FA.FADTC",
            "name": "FADTC",
            "label": "Date/Time of Collection",
            "type": "string"
          },
          {
            "OID": "IT.FA.FADY",
            "name": "FADY",
            "label": "Study Day of Collection",
            "type": "integer",
            "length": 8
          }
        ],
        "itemData": [
          [
            1,
            "CDISCPILOT01",
            "FA",
            "CDISC001",
            1,
            "1",
            "OCCUR",
            "Occurrence Indicator",
            "ERYTHEMA",
            "INJECTION SITE REACTION",
            "Y",
            "Y",
            "ARM",
            null,
            "TREATMENT",
            "2012-12-02",
            3
          ],
          [
            2,
            "CDISCPILOT01",
            "FA",
            "CDISC001",
            2,
            "1",
            "SEV",
            "Severity/Intensity",
            "ERYTHEMA",
            "INJECTION SITE REACTION",
            "MODERATE",
            "MODERATE",
            "ARM",
            null,
            "TREATMENT",
            "2012-12-02",
            3
          ],
          [
            3,
            "CDISCPILOT01",
            "FA",
            "CDISC001",
            3,
            "1",
            "OCCUR",
            "Occurrence Indicator",
            "PAIN",
            "INJECTION SITE REACTION",
            "N",
            "N",
            "ARM",
            null,
            "TREATMENT",
            "2012-12-02",
            3
          ],
          [
            4,
            "CDISCPILOT01",
            "FA",
            "CDISC001",
            4,
            "1",
            "OCCUR",
            "Occurrence Indicator",
            "INDURATION",
            "INJECTION SITE REACTION",
            "N",
            "N",
            "ARM",
            null,
            "TREATMENT",
            "2012-12-02",
            3
          ],
          [
            5,
            "CDISCPILOT01",
            "FA",
            "CDISC001",
            5,
            "1",
            "OCCUR",
            "Occurrence Indicator",
            "PRURITIS",
            "INJECTION SITE REACTION",
            "N",
            "N",
            "ARM",
            null,
            "TREATMENT",
            "2012-12-02",
            3
          ],
          [
            6,
            "CDISCPILOT01",
            "FA",
            "CDISC001",
            6,
            "1",
            "OCCUR",
            "Occurrence Indicator",
            "EDEMA",
            "INJECTION SITE REACTION",
            "N",
            "N",
            "ARM",
            null,
            "TREATMENT",
            "2012-12-02",
            3
          ],
          [
            7,
            "CDISCPILOT01",
            "FA",
            "CDISC002",
            1,
            "1",
            "OCCUR",
            "Occurrence Indicator",
            "ERYTHEMA",
            "INJECTION SITE REACTION",
            "N",
            "N",
            "ARM",
            null,
            "TREATMENT",
            "2012-11-16",
            2
          ],
          [
            8,
            "CDISCPILOT01",
            "FA",
            "CDISC002",
            2,
            "1",
            "OCCUR",
            "Occurrence Indicator",
            "PAIN",
            "INJECTION SITE REACTION",
            "N",
            "N",
            "ARM",
            null,
            "TREATMENT",
            "2012-11-16",
            2
          ],
          [
            9,
            "CDISCPILOT01",
            "FA",
            "CDISC002",
            3,
            "1",
            "OCCUR",
            "Occurrence Indicator",
            "INDURATION",
            "INJECTION SITE REACTION",
            "N",
            "N",
            "ARM",
            null,
            "TREATMENT",
            "2012-11-16",
            2
          ],
          [
            10,
            "CDISCPILOT01",
            "FA",
            "CDISC002",
            4,
            "1",
            "OCCUR",
            "Occurrence Indicator",
            "PRURITIS",
            "INJECTION SITE REACTION",
            "Y",
            "Y",
            "ARM",
            null,
            "TREATMENT",
            "2012-11-16",
            2
          ],
          [
            11,
            "CDISCPILOT01",
            "FA",
            "CDISC002",
            5,
            "1",
            "SEV",
            "Severity/Intensity",
            "PRURITIS",
            "INJECTION SITE REACTION",
            "MILD",
            "MILD",
            "ARM",
            null,
            "TREATMENT",
            "2012-11-16",
            2
          ],
          [
            12,
            "CDISCPILOT01",
            "FA",
            "CDISC002",
            6,
            "1",
            "OCCUR",
            "Occurrence Indicator",
            "EDEMA",
            "INJECTION SITE REACTION",
            "N",
            "N",
            "ARM",
            null,
            "TREATMENT",
            "2012-11-16",
            2
          ],
          [
            13,
            "CDISCPILOT01",
            "FA",
            "CDISC002",
            7,
            "5",
            "OCCUR",
            "Occurrence Indicator",
            "ERYTHEMA",
            "INJECTION SITE REACTION",
            "Y",
            "Y",
            "ARM",
            null,
            "TREATMENT",
            "2012-11-29",
            15
          ],
          [
            14,
            "CDISCPILOT01",
            "FA",
            "CDISC002",
            8,
            "5",
            "SEV",
            "Severity/Intensity",
            "ERYTHEMA",
            "INJECTION SITE REACTION",
            "MILD",
            "MILD",
            "ARM",
            null,
            "TREATMENT",
            "2012-11-29",
            15
          ],
          [
            15,
            "CDISCPILOT01",
            "FA",
            "CDISC002",
            9,
            "5",
            "OCCUR",
            "Occurrence Indicator",
            "PAIN",
            "INJECTION SITE REACTION",
            "N",
            "N",
            "ARM",
            null,
            "TREATMENT",
            "2012-11-29",
            15
          ],
          [
            16,
            "CDISCPILOT01",
            "FA",
            "CDISC002",
            10,
            "5",
            "OCCUR",
            "Occurrence Indicator",
            "INDURATION",
            "INJECTION SITE REACTION",
            "N",
            "N",
            "ARM",
            null,
            "TREATMENT",
            "2012-11-29",
            15
          ],
          [
            17,
            "CDISCPILOT01",
            "FA",
            "CDISC002",
            11,
            "5",
            "OCCUR",
            "Occurrence Indicator",
            "PRURITIS",
            "INJECTION SITE REACTION",
            "N",
            "N",
            "ARM",
            null,
            "TREATMENT",
            "2012-11-29",
            15
          ],
          [
            18,
            "CDISCPILOT01",
            "FA",
            "CDISC002",
            12,
            "5",
            "OCCUR",
            "Occurrence Indicator",
            "EDEMA",
            "INJECTION SITE REACTION",
            "N",
            "N",
            "ARM",
            null,
            "TREATMENT",
            "2012-11-29",
            15
          ],
          [
            19,
            "CDISCPILOT01",
            "FA",
            "CDISC003",
            1,
            "14",
            "OCCUR",
            "Occurrence Indicator",
            "ERYTHEMA",
            "INJECTION SITE REACTION",
            "Y",
            "Y",
            "ARM",
            null,
            "TREATMENT",
            "2013-10-15",
            48
          ],
          [
            20,
            "CDISCPILOT01",
            "FA",
            "CDISC003",
            2,
            "14",
            "SEV",
            "Severity/Intensity",
            "ERYTHEMA",
            "INJECTION SITE REACTION",
            "MILD",
            "MILD",
            "ARM",
            null,
            "TREATMENT",
            "2013-10-15",
            48
          ],
          [
            21,
            "CDISCPILOT01",
            "FA",
            "CDISC003",
            3,
            "14",
            "OCCUR",
            "Occurrence Indicator",
            "PAIN",
            "INJECTION SITE REACTION",
            "N",
            "N",
            "ARM",
            null,
            "TREATMENT",
            "2013-10-15",
            48
          ],
          [
            22,
            "CDISCPILOT01",
            "FA",
            "CDISC003",
            4,
            "14",
            "OCCUR",
            "Occurrence Indicator",
            "INDURATION",
            "INJECTION SITE REACTION",
            "N",
            "N",
            "ARM",
            null,
            "TREATMENT",
            "2013-10-15",
            48
          ],
          [
            23,
            "CDISCPILOT01",
            "FA",
            "CDISC003",
            5,
            "14",
            "OCCUR",
            "Occurrence Indicator",
            "PRURITIS",
            "INJECTION SITE REACTION",
            "N",
            "N",
            "ARM",
            null,
            "TREATMENT",
            "2013-10-15",
            48
          ],
          [
            24,
            "CDISCPILOT01",
            "FA",
            "CDISC003",
            6,
            "14",
            "OCCUR",
            "Occurrence Indicator",
            "EDEMA",
            "INJECTION SITE REACTION",
            "N",
            "N",
            "ARM",
            null,
            "TREATMENT",
            "2013-10-15",
            48
          ],
          [
            25,
            "CDISCPILOT01",
            "FA",
            "CDISC005",
            1,
            "1",
            "OCCUR",
            "Occurrence Indicator",
            "ERYTHEMA",
            "INJECTION SITE REACTION",
            "N",
            "N",
            "ARM",
            null,
            "TREATMENT",
            "2013-02-07",
            4
          ],
          [
            26,
            "CDISCPILOT01",
            "FA",
            "CDISC005",
            2,
            "1",
            "OCCUR",
            "Occurrence Indicator",
            "PAIN",
            "INJECTION SITE REACTION",
            "Y",
            "Y",
            "ARM",
            null,
            "TREATMENT",
            "2013-02-07",
            4
          ],
          [
            27,
            "CDISCPILOT01",
            "FA",
            "CDISC005",
            3,
            "1",
            "SEV",
            "Severity/Intensity",
            "PAIN",
            "INJECTION SITE REACTION",
            "MILD",
            "MILD",
            "ARM",
            null,
            "TREATMENT",
            "2013-02-07",
            4
          ],
          [
            28,
            "CDISCPILOT01",
            "FA",
            "CDISC005",
            4,
            "1",
            "OCCUR",
            "Occurrence Indicator",
            "INDURATION",
            "INJECTION SITE REACTION",
            "N",
            "N",
            "ARM",
            null,
            "TREATMENT",
            "2013-02-07",
            4
          ],
          [
            29,
            "CDISCPILOT01",
            "FA",
            "CDISC005",
            5,
            "1",
            "OCCUR",
            "Occurrence Indicator",
            "PRURITIS",
            "INJECTION SITE REACTION",
            "N",
            "N",
            "ARM",
            null,
            "TREATMENT",
            "2013-02-07",
            4
          ],
          [
            30,
            "CDISCPILOT01",
            "FA",
            "CDISC005",
            6,
            "1",
            "OCCUR",
            "Occurrence Indicator",
            "EDEMA",
            "INJECTION SITE REACTION",
            "N",
            "N",
            "ARM",
            null,
            "TREATMENT",
            "2013-02-07",
            4
          ],
          [
            31,
            "CDISCPILOT01",
            "FA",
            "CDISC005",
            7,
            "2",
            "OCCUR",
            "Occurrence Indicator",
            "ERYTHEMA",
            "INJECTION SITE REACTION",
            "N",
            "N",
            "ARM",
            null,
            "TREATMENT",
            "2013-03-23",
            48
          ],
          [
            32,
            "CDISCPILOT01",
            "FA",
            "CDISC005",
            8,
            "2",
            "OCCUR",
            "Occurrence Indicator",
            "PAIN",
            "INJECTION SITE REACTION",
            "N",
            "N",
            "ARM",
            null,
            "TREATMENT",
            "2013-03-23",
            48
          ],
          [
            33,
            "CDISCPILOT01",
            "FA",
            "CDISC005",
            9,
            "2",
            "OCCUR",
            "Occurrence Indicator",
            "INDURATION",
            "INJECTION SITE REACTION",
            "N",
            "N",
            "ARM",
            null,
            "TREATMENT",
            "2013-03-23",
            48
          ],
          [
            34,
            "CDISCPILOT01",
            "FA",
            "CDISC005",
            10,
            "2",
            "OCCUR",
            "Occurrence Indicator",
            "PRURITIS",
            "INJECTION SITE REACTION",
            "Y",
            "Y",
            "ARM",
            null,
            "TREATMENT",
            "2013-03-23",
            48
          ],
          [
            35,
            "CDISCPILOT01",
            "FA",
            "CDISC005",
            11,
            "2",
            "SEV",
            "Severity/Intensity",
            "PRURITIS",
            "INJECTION SITE REACTION",
            "MILD",
            "MILD",
            "ARM",
            null,
            "TREATMENT",
            "2013-03-23",
            48
          ],
          [
            36,
            "CDISCPILOT01",
            "FA",
            "CDISC005",
            12,
            "2",
            "OCCUR",
            "Occurrence Indicator",
            "EDEMA",
            "INJECTION SITE REACTION",
            "N",
            "N",
            "ARM",
            null,
            "TREATMENT",
            "2013-03-23",
            48
          ],
          [
            37,
            "CDISCPILOT01",
            "FA",
            "CDISC005",
            13,
            "4",
            "OCCUR",
            "Occurrence Indicator",
            "ERYTHEMA",
            "INJECTION SITE REACTION",
            "Y",
            "Y",
            "ARM",
            null,
            "TREATMENT",
            "2013-03-23",
            48
          ],
          [
            38,
            "CDISCPILOT01",
            "FA",
            "CDISC005",
            14,
            "4",
            "SEV",
            "Severity/Intensity",
            "ERYTHEMA",
            "INJECTION SITE REACTION",
            "MILD",
            "MILD",
            "ARM",
            null,
            "TREATMENT",
            "2013-03-23",
            48
          ],
          [
            39,
            "CDISCPILOT01",
            "FA",
            "CDISC005",
            15,
            "4",
            "OCCUR",
            "Occurrence Indicator",
            "PAIN",
            "INJECTION SITE REACTION",
            "N",
            "N",
            "ARM",
            null,
            "TREATMENT",
            "2013-03-23",
            48
          ],
          [
            40,
            "CDISCPILOT01",
            "FA",
            "CDISC005",
            16,
            "4",
            "OCCUR",
            "Occurrence Indicator",
            "INDURATION",
            "INJECTION SITE REACTION",
            "N",
            "N",
            "ARM",
            null,
            "TREATMENT",
            "2013-03-23",
            48
          ],
          [
            41,
            "CDISCPILOT01",
            "FA",
            "CDISC005",
            17,
            "4",
            "OCCUR",
            "Occurrence Indicator",
            "PRURITIS",
            "INJECTION SITE REACTION",
            "N",
            "N",
            "ARM",
            null,
            "TREATMENT",
            "2013-03-23",
            48
          ],
          [
            42,
            "CDISCPILOT01",
            "FA",
            "CDISC005",
            18,
            "4",
            "OCCUR",
            "Occurrence Indicator",
            "EDEMA",
            "INJECTION SITE REACTION",
            "N",
            "N",
            "ARM",
            null,
            "TREATMENT",
            "2013-03-23",
            48
          ],
          [
            43,
            "CDISCPILOT01",
            "FA",
            "CDISC005",
            19,
            "5",
            "OCCUR",
            "Occurrence Indicator",
            "ERYTHEMA",
            "INJECTION SITE REACTION",
            "Y",
            "Y",
            "ARM",
            null,
            "TREATMENT",
            "2013-04-12",
            68
          ],
          [
            44,
            "CDISCPILOT01",
            "FA",
            "CDISC005",
            20,
            "5",
            "SEV",
            "Severity/Intensity",
            "ERYTHEMA",
            "INJECTION SITE REACTION",
            "MILD",
            "MILD",
            "ARM",
            null,
            "TREATMENT",
            "2013-04-12",
            68
          ],
          [
            45,
            "CDISCPILOT01",
            "FA",
            "CDISC005",
            21,
            "5",
            "OCCUR",
            "Occurrence Indicator",
            "PAIN",
            "INJECTION SITE REACTION",
            "N",
            "N",
            "ARM",
            null,
            "TREATMENT",
            "2013-04-12",
            68
          ],
          [
            46,
            "CDISCPILOT01",
            "FA",
            "CDISC005",
            22,
            "5",
            "OCCUR",
            "Occurrence Indicator",
            "INDURATION",
            "INJECTION SITE REACTION",
            "N",
            "N",
            "ARM",
            null,
            "TREATMENT",
            "2013-04-12",
            68
          ],
          [
            47,
            "CDISCPILOT01",
            "FA",
            "CDISC005",
            23,
            "5",
            "OCCUR",
            "Occurrence Indicator",
            "PRURITIS",
            "INJECTION SITE REACTION",
            "N",
            "N",
            "ARM",
            null,
            "TREATMENT",
            "2013-04-12",
            68
          ],
          [
            48,
            "CDISCPILOT01",
            "FA",
            "CDISC005",
            24,
            "5",
            "OCCUR",
            "Occurrence Indicator",
            "EDEMA",
            "INJECTION SITE REACTION",
            "N",
            "N",
            "ARM",
            null,
            "TREATMENT",
            "2013-04-12",
            68
          ],
          [
            49,
            "CDISCPILOT01",
            "FA",
            "CDISC011",
            1,
            "4",
            "OCCUR",
            "Occurrence Indicator",
            "ERYTHEMA",
            "INJECTION SITE REACTION",
            "Y",
            "Y",
            "ARM",
            null,
            "TREATMENT",
            "2013-04-10",
            125
          ],
          [
            50,
            "CDISCPILOT01",
            "FA",
            "CDISC011",
            2,
            "4",
            "SEV",
            "Severity/Intensity",
            "ERYTHEMA",
            "INJECTION SITE REACTION",
            "MILD",
            "MILD",
            "ARM",
            null,
            "TREATMENT",
            "2013-04-10",
            125
          ],
          [
            51,
            "CDISCPILOT01",
            "FA",
            "CDISC011",
            3,
            "4",
            "OCCUR",
            "Occurrence Indicator",
            "PAIN",
            "INJECTION SITE REACTION",
            "N",
            "N",
            "ARM",
            null,
            "TREATMENT",
            "2013-04-10",
            125
          ],
          [
            52,
            "CDISCPILOT01",
            "FA",
            "CDISC011",
            4,
            "4",
            "OCCUR",
            "Occurrence Indicator",
            "INDURATION",
            "INJECTION SITE REACTION",
            "N",
            "N",
            "ARM",
            null,
            "TREATMENT",
            "2013-04-10",
            125
          ],
          [
            53,
            "CDISCPILOT01",
            "FA",
            "CDISC011",
            5,
            "4",
            "OCCUR",
            "Occurrence Indicator",
            "PRURITIS",
            "INJECTION SITE REACTION",
            "N",
            "N",
            "ARM",
            null,
            "TREATMENT",
            "2013-04-10",
            125
          ],
          [
            54,
            "CDISCPILOT01",
            "FA",
            "CDISC011",
            6,
            "4",
            "OCCUR",
            "Occurrence Indicator",
            "EDEMA",
            "INJECTION SITE REACTION",
            "N",
            "N",
            "ARM",
            null,
            "TREATMENT",
            "2013-04-10",
            125
          ],
          [
            55,
            "CDISCPILOT01",
            "FA",
            "CDISC011",
            7,
            "2",
            "OCCUR",
            "Occurrence Indicator",
            "ERYTHEMA",
            "INJECTION SITE REACTION",
            "N",
            "N",
            "ARM",
            null,
            "TREATMENT",
            "2013-01-12",
            37
          ],
          [
            56,
            "CDISCPILOT01",
            "FA",
            "CDISC011",
            8,
            "2",
            "OCCUR",
            "Occurrence Indicator",
            "PAIN",
            "INJECTION SITE REACTION",
            "N",
            "N",
            "ARM",
            null,
            "TREATMENT",
            "2013-01-12",
            37
          ],
          [
            57,
            "CDISCPILOT01",
            "FA",
            "CDISC011",
            9,
            "2",
            "OCCUR",
            "Occurrence Indicator",
            "INDURATION",
            "INJECTION SITE REACTION",
            "N",
            "N",
            "ARM",
            null,
            "TREATMENT",
            "2013-01-12",
            37
          ],
          [
            58,
            "CDISCPILOT01",
            "FA",
            "CDISC011",
            10,
            "2",
            "OCCUR",
            "Occurrence Indicator",
            "PRURITIS",
            "INJECTION SITE REACTION",
            "Y",
            "Y",
            "ARM",
            null,
            "TREATMENT",
            "2013-01-12",
            37
          ],
          [
            59,
            "CDISCPILOT01",
            "FA",
            "CDISC011",
            11,
            "2",
            "SEV",
            "Severity/Intensity",
            "PRURITIS",
            "INJECTION SITE REACTION",
            "MILD",
            "MILD",
            "ARM",
            null,
            "TREATMENT",
            "2013-01-12",
            37
          ],
          [
            60,
            "CDISCPILOT01",
            "FA",
            "CDISC011",
            12,
            "2",
            "OCCUR",
            "Occurrence Indicator",
            "EDEMA",
            "INJECTION SITE REACTION",
            "N",
            "N",
            "ARM",
            null,
            "TREATMENT",
            "2013-01-12",
            37
          ],
          [
            61,
            "CDISCPILOT01",
            "FA",
            "CDISC014",
            1,
            "1",
            "OCCUR",
            "Occurrence Indicator",
            "ERYTHEMA",
            "INJECTION SITE REACTION",
            "N",
            "N",
            "ARM",
            null,
            "TREATMENT",
            "2013-04-16",
            14
          ],
          [
            62,
            "CDISCPILOT01",
            "FA",
            "CDISC014",
            2,
            "1",
            "OCCUR",
            "Occurrence Indicator",
            "PAIN",
            "INJECTION SITE REACTION",
            "N",
            "N",
            "ARM",
            null,
            "TREATMENT",
            "2013-04-16",
            14
          ],
          [
            63,
            "CDISCPILOT01",
            "FA",
            "CDISC014",
            3,
            "1",
            "OCCUR",
            "Occurrence Indicator",
            "INDURATION",
            "INJECTION SITE REACTION",
            "N",
            "N",
            "ARM",
            null,
            "TREATMENT",
            "2013-04-16",
            14
          ],
          [
            64,
            "CDISCPILOT01",
            "FA",
            "CDISC014",
            4,
            "1",
            "OCCUR",
            "Occurrence Indicator",
            "PRURITIS",
            "INJECTION SITE REACTION",
            "Y",
            "Y",
            "ARM",
            null,
            "TREATMENT",
            "2013-04-16",
            14
          ],
          [
            65,
            "CDISCPILOT01",
            "FA",
            "CDISC014",
            5,
            "1",
            "SEV",
            "Severity/Intensity",
            "PRURITIS",
            "INJECTION SITE REACTION",
            "MODERATE",
            "MODERATE",
            "ARM",
            null,
            "TREATMENT",
            "2013-04-16",
            14
          ],
          [
            66,
            "CDISCPILOT01",
            "FA",
            "CDISC014",
            6,
            "1",
            "OCCUR",
            "Occurrence Indicator",
            "EDEMA",
            "INJECTION SITE REACTION",
            "N",
            "N",
            "ARM",
            null,
            "TREATMENT",
            "2013-04-16",
            14
          ],
          [
            67,
            "CDISCPILOT01",
            "FA",
            "CDISC017",
            1,
            "5",
            "OCCUR",
            "Occurrence Indicator",
            "ERYTHEMA",
            "INJECTION SITE REACTION",
            "N",
            "N",
            "ARM",
            null,
            "TREATMENT",
            "2013-12-29",
            100
          ],
          [
            68,
            "CDISCPILOT01",
            "FA",
            "CDISC017",
            2,
            "5",
            "OCCUR",
            "Occurrence Indicator",
            "PAIN",
            "INJECTION SITE REACTION",
            "N",
            "N",
            "ARM",
            null,
            "TREATMENT",
            "2013-12-29",
            100
          ],
          [
            69,
            "CDISCPILOT01",
            "FA",
            "CDISC017",
            3,
            "5",
            "OCCUR",
            "Occurrence Indicator",
            "INDURATION",
            "INJECTION SITE REACTION",
            "N",
            "N",
            "ARM",
            null,
            "TREATMENT",
            "2013-12-29",
            100
          ],
          [
            70,
            "CDISCPILOT01",
            "FA",
            "CDISC017",
            4,
            "5",
            "OCCUR",
            "Occurrence Indicator",
            "PRURITIS",
            "INJECTION SITE REACTION",
            "Y",
            "Y",
            "ARM",
            null,
            "TREATMENT",
            "2013-12-29",
            100
          ],
          [
            71,
            "CDISCPILOT01",
            "FA",
            "CDISC017",
            5,
            "5",
            "SEV",
            "Severity/Intensity",
            "PRURITIS",
            "INJECTION SITE REACTION",
            "MODERATE",
            "MODERATE",
            "ARM",
            null,
            "TREATMENT",
            "2013-12-29",
            100
          ],
          [
            72,
            "CDISCPILOT01",
            "FA",
            "CDISC017",
            6,
            "5",
            "OCCUR",
            "Occurrence Indicator",
            "EDEMA",
            "INJECTION SITE REACTION",
            "N",
            "N",
            "ARM",
            null,
            "TREATMENT",
            "2013-12-29",
            100
          ],
          [
            73,
            "CDISCPILOT01",
            "FA",
            "CDISC018",
            1,
            "8",
            "OCCUR",
            "Occurrence Indicator",
            "ERYTHEMA",
            "INJECTION SITE REACTION",
            "N",
            "N",
            "ARM",
            null,
            "TREATMENT",
            "2013-01-27",
            42
          ],
          [
            74,
            "CDISCPILOT01",
            "FA",
            "CDISC018",
            2,
            "8",
            "OCCUR",
            "Occurrence Indicator",
            "PAIN",
            "INJECTION SITE REACTION",
            "N",
            "N",
            "ARM",
            null,
            "TREATMENT",
            "2013-01-27",
            42
          ],
          [
            75,
            "CDISCPILOT01",
            "FA",
            "CDISC018",
            3,
            "8",
            "OCCUR",
            "Occurrence Indicator",
            "INDURATION",
            "INJECTION SITE REACTION",
            "N",
            "N",
            "ARM",
            null,
            "TREATMENT",
            "2013-01-27",
            42
          ],
          [
            76,
            "CDISCPILOT01",
            "FA",
            "CDISC018",
            4,
            "8",
            "OCCUR",
            "Occurrence Indicator",
            "PRURITIS",
            "INJECTION SITE REACTION",
            "Y",
            "Y",
            "ARM",
            null,
            "TREATMENT",
            "2013-01-27",
            42
          ],
          [
            77,
            "CDISCPILOT01",
            "FA",
            "CDISC018",
            5,
            "8",
            "SEV",
            "Severity/Intensity",
            "PRURITIS",
            "INJECTION SITE REACTION",
            "MODERATE",
            "MODERATE",
            "ARM",
            null,
            "TREATMENT",
            "2013-01-27",
            42
          ],
          [
            78,
            "CDISCPILOT01",
            "FA",
            "CDISC018",
            6,
            "8",
            "OCCUR",
            "Occurrence Indicator",
            "EDEMA",
            "INJECTION SITE REACTION",
            "N",
            "N",
            "ARM",
            null,
            "TREATMENT",
            "2013-01-27",
            42
          ]
        ]
      }
    }
  }
}
