{
  "clinicalData": {
    "studyOID": "cdisc.com/CDISCPILOT01",
    "metaDataVersionOID": "MDV.MSGv2.0.SDTMIG.3.3.SDTM.1.7",
    "itemGroupData": {
      "IG.FT": {
        "records": 4488,
        "name": "FT",
        "label": "Functional Tests",
        "items": [
          {
            "OID": "ITEMGROUPDATASEQ",
            "name": "ITEMGROUPDATASEQ",
            "label": "Record identifier",
            "type": "integer"
          },
          {
            "OID": "IT.FT.STUDYID",
            "name": "STUDYID",
            "label": "Study Identifier",
            "type": "string",
            "length": 12
          },
          {
            "OID": "IT.FT.DOMAIN",
            "name": "DOMAIN",
            "label": "Domain Abbreviation",
            "type": "string",
            "length": 2
          },
          {
            "OID": "IT.FT.USUBJID",
            "name": "USUBJID",
            "label": "Unique Subject Identifier",
            "type": "string",
            "length": 8
          },
          {
            "OID": "IT.FT.FTSEQ",
            "name": "FTSEQ",
            "label": "Sequence Number",
            "type": "integer",
            "length": 3
          },
          {
            "OID": "IT.FT.FTTESTCD",
            "name": "FTTESTCD",
            "label": "Short Name of Test",
            "type": "string",
            "length": 7
          },
          {
            "OID": "IT.FT.FTTEST",
            "name": "FTTEST",
            "label": "Name of Test",
            "type": "string",
            "length": 23
          },
          {
            "OID": "IT.FT.FTCAT",
            "name": "FTCAT",
            "label": "Category",
            "type": "string",
            "length": 8
          },
          {
            "OID": "IT.FT.FTSCAT",
            "name": "FTSCAT",
            "label": "Subcategory",
            "type": "string",
            "length": 200
          },
          {
            "OID": "IT.FT.FTORRES",
            "name": "FTORRES",
            "label": "Result or Finding in Original Units",
            "type": "string",
            "length": 12
          },
          {
            "OID": "IT.FT.FTSTRESC",
            "name": "FTSTRESC",
            "label": "Result or Finding in Standard Format",
            "type": "string",
            "length": 200
          },
          {
            "OID": "IT.FT.FTSTRESN",
            "name": "FTSTRESN",
            "label": "Numeric Result/Finding in Standard Units",
            "type": "integer",
            "length": 8
          },
          {
            "OID": "IT.FT.FTLOBXFL",
            "name": "FTLOBXFL",
            "label": "Last Observation Before Exposure Flag",
            "type": "string",
            "length": 1
          },
          {
            "OID": "IT.FT.FTREPNUM",
            "name": "FTREPNUM",
            "label": "Repetition Number",
            "type": "integer",
            "length": 8
          },
          {
            "OID": "IT.FT.VISITNUM",
            "name": "VISITNUM",
            "label": "Visit Number",
            "type": "float",
            "length": 8
          },
          {
            "OID": "IT.FT.VISIT",
            "name": "VISIT",
            "label": "Visit Name",
            "type": "string",
            "length": 200
          },
          {
            "OID": "IT.FT.EPOCH",
            "name": "EPOCH",
            "label": "Epoch",
            "type": "string",
            "length": 9
          },
          {
            "OID": "IT.FT.FTDTC",
            "name": "FTDTC",
            "label": "Date/Time of Test",
            "type": "string"
          },
          {
            "OID": "IT.FT.FTDY",
            "name": "FTDY",
            "label": "Study Day of Test",
            "type": "integer",
            "length": 8
          },
          {
            "OID": "IT.FT.FTTPT",
            "name": "FTTPT",
            "label": "Planned Time Point Name",
            "type": "string",
            "length": 200
          },
          {
            "OID": "IT.FT.FTTPTNUM",
            "name": "FTTPTNUM",
            "label": "Planned Time Point Number",
            "type": "integer",
            "length": 8
          },
          {
            "OID": "IT.FT.FTELTM",
            "name": "FTELTM",
            "label": "Planned Elapsed Time from Time Point Ref",
            "type": "string",
            "length": 200
          },
          {
            "OID": "IT.FT.FTTPTREF",
            "name": "FTTPTREF",
            "label": "Time Point Reference",
            "type": "string",
            "length": 200
          }
        ],
        "itemData": [
          [
            1,
            "CDISCPILOT01",
            "FT",
            "CDISC001",
            1,
            "AVL0201",
            "AVL02-List A Word 1",
            "AVLT-REY",
            "FORM 1",
            "RECALLED",
            "RECALLED",
            null,
            "Y",
            1,
            2,
            "SCREENING 2",
            "SCREENING",
            "2012-11-28T12:00",
            -2,
            "",
            null,
            "",
            ""
          ],
          [
            2,
            "CDISCPILOT01",
            "FT",
            "CDISC001",
            2,
            "AVL0202",
            "AVL02-List A Word 2",
            "AVLT-REY",
            "FORM 1",
            "RECALLED",
            "RECALLED",
            null,
            "Y",
            1,
            2,
            "SCREENING 2",
            "SCREENING",
            "2012-11-28T12:00",
            -2,
            "",
            null,
            "",
            ""
          ],
          [
            3,
            "CDISCPILOT01",
            "FT",
            "CDISC001",
            3,
            "AVL0203",
            "AVL02-List A Word 3",
            "AVLT-REY",
            "FORM 1",
            "NOT RECALLED",
            "NOT RECALLED",
            null,
            "Y",
            1,
            2,
            "SCREENING 2",
            "SCREENING",
            "2012-11-28T12:00",
            -2,
            "",
            null,
            "",
            ""
          ],
          [
            4,
            "CDISCPILOT01",
            "FT",
            "CDISC001",
            4,
            "AVL0204",
            "AVL02-List A Word 4",
            "AVLT-REY",
            "FORM 1",
            "RECALLED",
            "RECALLED",
            null,
            "Y",
            1,
            2,
            "SCREENING 2",
            "SCREENING",
            "2012-11-28T12:00",
            -2,
            "",
            null,
            "",
            ""
          ],
          [
            5,
            "CDISCPILOT01",
            "FT",
            "CDISC001",
            5,
            "AVL0205",
            "AVL02-List A Word 5",
            "AVLT-REY",
            "FORM 1",
            "RECALLED",
            "RECALLED",
            null,
            "Y",
            1,
            2,
            "SCREENING 2",
            "SCREENING",
            "2012-11-28T12:00",
            -2,
            "",
            null,
            "",
            ""
          ],
          [
            6,
            "CDISCPILOT01",
            "FT",
            "CDISC001",
            6,
            "AVL0206",
            "AVL02-List A Word 6",
            "AVLT-REY",
            "FORM 1",
            "NOT RECALLED",
            "NOT RECALLED",
            null,
            "Y",
            1,
            2,
            "SCREENING 2",
            "SCREENING",
            "2012-11-28T12:00",
            -2,
            "",
            null,
            "",
            ""
          ],
          [
            7,
            "CDISCPILOT01",
            "FT",
            "CDISC001",
            7,
            "AVL0207",
            "AVL02-List A Word 7",
            "AVLT-REY",
            "FORM 1",
            "RECALLED",
            "RECALLED",
            null,
            "Y",
            1,
            2,
            "SCREENING 2",
            "SCREENING",
            "2012-11-28T12:00",
            -2,
            "",
            null,
            "",
            ""
          ],
          [
            8,
            "CDISCPILOT01",
            "FT",
            "CDISC001",
            8,
            "AVL0208",
            "AVL02-List A Word 8",
            "AVLT-REY",
            "FORM 1",
            "NOT RECALLED",
            "NOT RECALLED",
            null,
            "Y",
            1,
            2,
            "SCREENING 2",
            "SCREENING",
            "2012-11-28T12:00",
            -2,
            "",
            null,
            "",
            ""
          ],
          [
            9,
            "CDISCPILOT01",
            "FT",
            "CDISC001",
            9,
            "AVL0209",
            "AVL02-List A Word 9",
            "AVLT-REY",
            "FORM 1",
            "NOT RECALLED",
            "NOT RECALLED",
            null,
            "Y",
            1,
            2,
            "SCREENING 2",
            "SCREENING",
            "2012-11-28T12:00",
            -2,
            "",
            null,
            "",
            ""
          ],
          [
            10,
            "CDISCPILOT01",
            "FT",
            "CDISC001",
            10,
            "AVL0210",
            "AVL02-List A Word 10",
            "AVLT-REY",
            "FORM 1",
            "NOT RECALLED",
            "NOT RECALLED",
            null,
            "Y",
            1,
            2,
            "SCREENING 2",
            "SCREENING",
            "2012-11-28T12:00",
            -2,
            "",
            null,
            "",
            ""
          ],
          [
            11,
            "CDISCPILOT01",
            "FT",
            "CDISC001",
            11,
            "AVL0211",
            "AVL02-List A Word 11",
            "AVLT-REY",
            "FORM 1",
            "NOT RECALLED",
            "NOT RECALLED",
            null,
            "Y",
            1,
            2,
            "SCREENING 2",
            "SCREENING",
            "2012-11-28T12:00",
            -2,
            "",
            null,
            "",
            ""
          ],
          [
            12,
            "CDISCPILOT01",
            "FT",
            "CDISC001",
            12,
            "AVL0212",
            "AVL02-List A Word 12",
            "AVLT-REY",
            "FORM 1",
            "NOT RECALLED",
            "NOT RECALLED",
            null,
            "Y",
            1,
            2,
            "SCREENING 2",
            "SCREENING",
            "2012-11-28T12:00",
            -2,
            "",
            null,
            "",
            ""
          ],
          [
            13,
            "CDISCPILOT01",
            "FT",
            "CDISC001",
            13,
            "AVL0213",
            "AVL02-List A Word 13",
            "AVLT-REY",
            "FORM 1",
            "NOT RECALLED",
            "NOT RECALLED",
            null,
            "Y",
            1,
            2,
            "SCREENING 2",
            "SCREENING",
            "2012-11-28T12:00",
            -2,
            "",
            null,
            "",
            ""
          ],
          [
            14,
            "CDISCPILOT01",
            "FT",
            "CDISC001",
            14,
            "AVL0214",
            "AVL02-List A Word 14",
            "AVLT-REY",
            "FORM 1",
            "NOT RECALLED",
            "NOT RECALLED",
            null,
            "Y",
            1,
            2,
            "SCREENING 2",
            "SCREENING",
            "2012-11-28T12:00",
            -2,
            "",
            null,
            "",
            ""
          ],
          [
            15,
            "CDISCPILOT01",
            "FT",
            "CDISC001",
            15,
            "AVL0215",
            "AVL02-List A Word 15",
            "AVLT-REY",
            "FORM 1",
            "NOT RECALLED",
            "NOT RECALLED",
            null,
            "Y",
            1,
            2,
            "SCREENING 2",
            "SCREENING",
            "2012-11-28T12:00",
            -2,
            "",
            null,
            "",
            ""
          ],
          [
            16,
            "CDISCPILOT01",
            "FT",
            "CDISC001",
            16,
            "AVL0216",
            "AVL02-List A Total",
            "AVLT-REY",
            "FORM 1",
            "5",
            "5",
            5,
            "Y",
            1,
            2,
            "SCREENING 2",
            "SCREENING",
            "2012-11-28T12:00",
            -2,
            "",
            null,
            "",
            ""
          ],
          [
            17,
            "CDISCPILOT01",
            "FT",
            "CDISC001",
            17,
            "AVL0217",
            "AVL02-List A Intrusions",
            "AVLT-REY",
            "FORM 1",
            "2",
            "2",
            2,
            "Y",
            1,
            2,
            "SCREENING 2",
            "SCREENING",
            "2012-11-28T12:00",
            -2,
            "",
            null,
            "",
            ""
          ],
          [
            18,
            "CDISCPILOT01",
            "FT",
            "CDISC001",
            18,
            "AVL0201",
            "AVL02-List A Word 1",
            "AVLT-REY",
            "FORM 1",
            "RECALLED",
            "RECALLED",
            null,
            "Y",
            2,
            2,
            "SCREENING 2",
            "SCREENING",
            "2012-11-28T12:05",
            -2,
            "",
            null,
            "",
            ""
          ],
          [
            19,
            "CDISCPILOT01",
            "FT",
            "CDISC001",
            19,
            "AVL0202",
            "AVL02-List A Word 2",
            "AVLT-REY",
            "FORM 1",
            "RECALLED",
            "RECALLED",
            null,
            "Y",
            2,
            2,
            "SCREENING 2",
            "SCREENING",
            "2012-11-28T12:05",
            -2,
            "",
            null,
            "",
            ""
          ],
          [
            20,
            "CDISCPILOT01",
            "FT",
            "CDISC001",
            20,
            "AVL0203",
            "AVL02-List A Word 3",
            "AVLT-REY",
            "FORM 1",
            "NOT RECALLED",
            "NOT RECALLED",
            null,
            "Y",
            2,
            2,
            "SCREENING 2",
            "SCREENING",
            "2012-11-28T12:05",
            -2,
            "",
            null,
            "",
            ""
          ],
          [
            21,
            "CDISCPILOT01",
            "FT",
            "CDISC001",
            21,
            "AVL0204",
            "AVL02-List A Word 4",
            "AVLT-REY",
            "FORM 1",
            "RECALLED",
            "RECALLED",
            null,
            "Y",
            2,
            2,
            "SCREENING 2",
            "SCREENING",
            "2012-11-28T12:05",
            -2,
            "",
            null,
            "",
            ""
          ],
          [
            22,
            "CDISCPILOT01",
            "FT",
            "CDISC001",
            22,
            "AVL0205",
            "AVL02-List A Word 5",
            "AVLT-REY",
            "FORM 1",
            "RECALLED",
            "RECALLED",
            null,
            "Y",
            2,
            2,
            "SCREENING 2",
            "SCREENING",
            "2012-11-28T12:05",
            -2,
            "",
            null,
            "",
            ""
          ],
          [
            23,
            "CDISCPILOT01",
            "FT",
            "CDISC001",
            23,
            "AVL0206",
            "AVL02-List A Word 6",
            "AVLT-REY",
            "FORM 1",
            "NOT RECALLED",
            "NOT RECALLED",
            null,
            "Y",
            2,
            2,
            "SCREENING 2",
            "SCREENING",
            "2012-11-28T12:05",
            -2,
            "",
            null,
            "",
            ""
          ],
          [
            24,
            "CDISCPILOT01",
            "FT",
            "CDISC001",
            24,
            "AVL0207",
            "AVL02-List A Word 7",
            "AVLT-REY",
            "FORM 1",
            "RECALLED",
            "RECALLED",
            null,
            "Y",
            2,
            2,
            "SCREENING 2",
            "SCREENING",
            "2012-11-28T12:05",
            -2,
            "",
            null,
            "",
            ""
          ],
          [
            25,
            "CDISCPILOT01",
            "FT",
            "CDISC001",
            25,
            "AVL0208",
            "AVL02-List A Word 8",
            "AVLT-REY",
            "FORM 1",
            "RECALLED",
            "RECALLED",
            null,
            "Y",
            2,
            2,
            "SCREENING 2",
            "SCREENING",
            "2012-11-28T12:05",
            -2,
            "",
            null,
            "",
            ""
          ],
          [
            26,
            "CDISCPILOT01",
            "FT",
            "CDISC001",
            26,
            "AVL0209",
            "AVL02-List A Word 9",
            "AVLT-REY",
            "FORM 1",
            "NOT RECALLED",
            "NOT RECALLED",
            null,
            "Y",
            2,
            2,
            "SCREENING 2",
            "SCREENING",
            "2012-11-28T12:05",
            -2,
            "",
            null,
            "",
            ""
          ],
          [
            27,
            "CDISCPILOT01",
            "FT",
            "CDISC001",
            27,
            "AVL0210",
            "AVL02-List A Word 10",
            "AVLT-REY",
            "FORM 1",
            "NOT RECALLED",
            "NOT RECALLED",
            null,
            "Y",
            2,
            2,
            "SCREENING 2",
            "SCREENING",
            "2012-11-28T12:05",
            -2,
            "",
            null,
            "",
            ""
          ],
          [
            28,
            "CDISCPILOT01",
            "FT",
            "CDISC001",
            28,
            "AVL0211",
            "AVL02-List A Word 11",
            "AVLT-REY",
            "FORM 1",
            "NOT RECALLED",
            "NOT RECALLED",
            null,
            "Y",
            2,
            2,
            "SCREENING 2",
            "SCREENING",
            "2012-11-28T12:05",
            -2,
            "",
            null,
            "",
            ""
          ],
          [
            29,
            "CDISCPILOT01",
            "FT",
            "CDISC001",
            29,
            "AVL0212",
            "AVL02-List A Word 12",
            "AVLT-REY",
            "FORM 1",
            "NOT RECALLED",
            "NOT RECALLED",
            null,
            "Y",
            2,
            2,
            "SCREENING 2",
            "SCREENING",
            "2012-11-28T12:05",
            -2,
            "",
            null,
            "",
            ""
          ],
          [
            30,
            "CDISCPILOT01",
            "FT",
            "CDISC001",
            30,
            "AVL0213",
            "AVL02-List A Word 13",
            "AVLT-REY",
            "FORM 1",
            "NOT RECALLED",
            "NOT RECALLED",
            null,
            "Y",
            2,
            2,
            "SCREENING 2",
            "SCREENING",
            "2012-11-28T12:05",
            -2,
            "",
            null,
            "",
            ""
          ],
          [
            31,
            "CDISCPILOT01",
            "FT",
            "CDISC001",
            31,
            "AVL0214",
            "AVL02-List A Word 14",
            "AVLT-REY",
            "FORM 1",
            "NOT RECALLED",
            "NOT RECALLED",
            null,
            "Y",
            2,
            2,
            "SCREENING 2",
            "SCREENING",
            "2012-11-28T12:05",
            -2,
            "",
            null,
            "",
            ""
          ],
          [
            32,
            "CDISCPILOT01",
            "FT",
            "CDISC001",
            32,
            "AVL0215",
            "AVL02-List A Word 15",
            "AVLT-REY",
            "FORM 1",
            "NOT RECALLED",
            "NOT RECALLED",
            null,
            "Y",
            2,
            2,
            "SCREENING 2",
            "SCREENING",
            "2012-11-28T12:05",
            -2,
            "",
            null,
            "",
            ""
          ],
          [
            33,
            "CDISCPILOT01",
            "FT",
            "CDISC001",
            33,
            "AVL0216",
            "AVL02-List A Total",
            "AVLT-REY",
            "FORM 1",
            "6",
            "6",
            6,
            "Y",
            2,
            2,
            "SCREENING 2",
            "SCREENING",
            "2012-11-28T12:05",
            -2,
            "",
            null,
            "",
            ""
          ],
          [
            34,
            "CDISCPILOT01",
            "FT",
            "CDISC001",
            34,
            "AVL0217",
            "AVL02-List A Intrusions",
            "AVLT-REY",
            "FORM 1",
            "2",
            "2",
            2,
            "Y",
            2,
            2,
            "SCREENING 2",
            "SCREENING",
            "2012-11-28T12:05",
            -2,
            "",
            null,
            "",
            ""
          ],
          [
            35,
            "CDISCPILOT01",
            "FT",
            "CDISC001",
            35,
            "AVL0201",
            "AVL02-List A Word 1",
            "AVLT-REY",
            "FORM 1",
            "RECALLED",
            "RECALLED",
            null,
            "Y",
            3,
            2,
            "SCREENING 2",
            "SCREENING",
            "2012-11-28T12:10",
            -2,
            "",
            null,
            "",
            ""
          ],
          [
            36,
            "CDISCPILOT01",
            "FT",
            "CDISC001",
            36,
            "AVL0202",
            "AVL02-List A Word 2",
            "AVLT-REY",
            "FORM 1",
            "RECALLED",
            "RECALLED",
            null,
            "Y",
            3,
            2,
            "SCREENING 2",
            "SCREENING",
            "2012-11-28T12:10",
            -2,
            "",
            null,
            "",
            ""
          ],
          [
            37,
            "CDISCPILOT01",
            "FT",
            "CDISC001",
            37,
            "AVL0203",
            "AVL02-List A Word 3",
            "AVLT-REY",
            "FORM 1",
            "NOT RECALLED",
            "NOT RECALLED",
            null,
            "Y",
            3,
            2,
            "SCREENING 2",
            "SCREENING",
            "2012-11-28T12:10",
            -2,
            "",
            null,
            "",
            ""
          ],
          [
            38,
            "CDISCPILOT01",
            "FT",
            "CDISC001",
            38,
            "AVL0204",
            "AVL02-List A Word 4",
            "AVLT-REY",
            "FORM 1",
            "RECALLED",
            "RECALLED",
            null,
            "Y",
            3,
            2,
            "SCREENING 2",
            "SCREENING",
            "2012-11-28T12:10",
            -2,
            "",
            null,
            "",
            ""
          ],
          [
            39,
            "CDISCPILOT01",
            "FT",
            "CDISC001",
            39,
            "AVL0205",
            "AVL02-List A Word 5",
            "AVLT-REY",
            "FORM 1",
            "RECALLED",
            "RECALLED",
            null,
            "Y",
            3,
            2,
            "SCREENING 2",
            "SCREENING",
            "2012-11-28T12:10",
            -2,
            "",
            null,
            "",
            ""
          ],
          [
            40,
            "CDISCPILOT01",
            "FT",
            "CDISC001",
            40,
            "AVL0206",
            "AVL02-List A Word 6",
            "AVLT-REY",
            "FORM 1",
            "NOT RECALLED",
            "NOT RECALLED",
            null,
            "Y",
            3,
            2,
            "SCREENING 2",
            "SCREENING",
            "2012-11-28T12:10",
            -2,
            "",
            null,
            "",
            ""
          ],
          [
            41,
            "CDISCPILOT01",
            "FT",
            "CDISC001",
            41,
            "AVL0207",
            "AVL02-List A Word 7",
            "AVLT-REY",
            "FORM 1",
            "RECALLED",
            "RECALLED",
            null,
            "Y",
            3,
            2,
            "SCREENING 2",
            "SCREENING",
            "2012-11-28T12:10",
            -2,
            "",
            null,
            "",
            ""
          ],
          [
            42,
            "CDISCPILOT01",
            "FT",
            "CDISC001",
            42,
            "AVL0208",
            "AVL02-List A Word 8",
            "AVLT-REY",
            "FORM 1",
            "NOT RECALLED",
            "NOT RECALLED",
            null,
            "Y",
            3,
            2,
            "SCREENING 2",
            "SCREENING",
            "2012-11-28T12:10",
            -2,
            "",
            null,
            "",
            ""
          ],
          [
            43,
            "CDISCPILOT01",
            "FT",
            "CDISC001",
            43,
            "AVL0209",
            "AVL02-List A Word 9",
            "AVLT-REY",
            "FORM 1",
            "NOT RECALLED",
            "NOT RECALLED",
            null,
            "Y",
            3,
            2,
            "SCREENING 2",
            "SCREENING",
            "2012-11-28T12:10",
            -2,
            "",
            null,
            "",
            ""
          ],
          [
            44,
            "CDISCPILOT01",
            "FT",
            "CDISC001",
            44,
            "AVL0210",
            "AVL02-List A Word 10",
            "AVLT-REY",
            "FORM 1",
            "NOT RECALLED",
            "NOT RECALLED",
            null,
            "Y",
            3,
            2,
            "SCREENING 2",
            "SCREENING",
            "2012-11-28T12:10",
            -2,
            "",
            null,
            "",
            ""
          ],
          [
            45,
            "CDISCPILOT01",
            "FT",
            "CDISC001",
            45,
            "AVL0211",
            "AVL02-List A Word 11",
            "AVLT-REY",
            "FORM 1",
            "RECALLED",
            "RECALLED",
            null,
            "Y",
            3,
            2,
            "SCREENING 2",
            "SCREENING",
            "2012-11-28T12:10",
            -2,
            "",
            null,
            "",
            ""
          ],
          [
            46,
            "CDISCPILOT01",
            "FT",
            "CDISC001",
            46,
            "AVL0212",
            "AVL02-List A Word 12",
            "AVLT-REY",
            "FORM 1",
            "RECALLED",
            "RECALLED",
            null,
            "Y",
            3,
            2,
            "SCREENING 2",
            "SCREENING",
            "2012-11-28T12:10",
            -2,
            "",
            null,
            "",
            ""
          ],
          [
            47,
            "CDISCPILOT01",
            "FT",
            "CDISC001",
            47,
            "AVL0213",
            "AVL02-List A Word 13",
            "AVLT-REY",
            "FORM 1",
            "NOT RECALLED",
            "NOT RECALLED",
            null,
            "Y",
            3,
            2,
            "SCREENING 2",
            "SCREENING",
            "2012-11-28T12:10",
            -2,
            "",
            null,
            "",
            ""
          ],
          [
            48,
            "CDISCPILOT01",
            "FT",
            "CDISC001",
            48,
            "AVL0214",
            "AVL02-List A Word 14",
            "AVLT-REY",
            "FORM 1",
            "NOT RECALLED",
            "NOT RECALLED",
            null,
            "Y",
            3,
            2,
            "SCREENING 2",
            "SCREENING",
            "2012-11-28T12:10",
            -2,
            "",
            null,
            "",
            ""
          ],
          [
            49,
            "CDISCPILOT01",
            "FT",
            "CDISC001",
            49,
            "AVL0215",
            "AVL02-List A Word 15",
            "AVLT-REY",
            "FORM 1",
            "NOT RECALLED",
            "NOT RECALLED",
            null,
            "Y",
            3,
            2,
            "SCREENING 2",
            "SCREENING",
            "2012-11-28T12:10",
            -2,
            "",
            null,
            "",
            ""
          ],
          [
            50,
            "CDISCPILOT01",
            "FT",
            "CDISC001",
            50,
            "AVL0216",
            "AVL02-List A Total",
            "AVLT-REY",
            "FORM 1",
            "7",
            "7",
            7,
            "Y",
            3,
            2,
            "SCREENING 2",
            "SCREENING",
            "2012-11-28T12:10",
            -2,
            "",
            null,
            "",
            ""
          ],
          [
            51,
            "CDISCPILOT01",
            "FT",
            "CDISC001",
            51,
            "AVL0217",
            "AVL02-List A Intrusions",
            "AVLT-REY",
            "FORM 1",
            "1",
            "1",
            1,
            "Y",
            3,
            2,
            "SCREENING 2",
            "SCREENING",
            "2012-11-28T12:10",
            -2,
            "",
            null,
            "",
            ""
          ],
          [
            52,
            "CDISCPILOT01",
            "FT",
            "CDISC001",
            52,
            "AVL0201",
            "AVL02-List A Word 1",
            "AVLT-REY",
            "FORM 1",
            "RECALLED",
            "RECALLED",
            null,
            "Y",
            4,
            2,
            "SCREENING 2",
            "SCREENING",
            "2012-11-28T12:15",
            -2,
            "",
            null,
            "",
            ""
          ],
          [
            53,
            "CDISCPILOT01",
            "FT",
            "CDISC001",
            53,
            "AVL0202",
            "AVL02-List A Word 2",
            "AVLT-REY",
            "FORM 1",
            "RECALLED",
            "RECALLED",
            null,
            "Y",
            4,
            2,
            "SCREENING 2",
            "SCREENING",
            "2012-11-28T12:15",
            -2,
            "",
            null,
            "",
            ""
          ],
          [
            54,
            "CDISCPILOT01",
            "FT",
            "CDISC001",
            54,
            "AVL0203",
            "AVL02-List A Word 3",
            "AVLT-REY",
            "FORM 1",
            "NOT RECALLED",
            "NOT RECALLED",
            null,
            "Y",
            4,
            2,
            "SCREENING 2",
            "SCREENING",
            "2012-11-28T12:15",
            -2,
            "",
            null,
            "",
            ""
          ],
          [
            55,
            "CDISCPILOT01",
            "FT",
            "CDISC001",
            55,
            "AVL0204",
            "AVL02-List A Word 4",
            "AVLT-REY",
            "FORM 1",
            "RECALLED",
            "RECALLED",
            null,
            "Y",
            4,
            2,
            "SCREENING 2",
            "SCREENING",
            "2012-11-28T12:15",
            -2,
            "",
            null,
            "",
            ""
          ],
          [
            56,
            "CDISCPILOT01",
            "FT",
            "CDISC001",
            56,
            "AVL0205",
            "AVL02-List A Word 5",
            "AVLT-REY",
            "FORM 1",
            "RECALLED",
            "RECALLED",
            null,
            "Y",
            4,
            2,
            "SCREENING 2",
            "SCREENING",
            "2012-11-28T12:15",
            -2,
            "",
            null,
            "",
            ""
          ],
          [
            57,
            "CDISCPILOT01",
            "FT",
            "CDISC001",
            57,
            "AVL0206",
            "AVL02-List A Word 6",
            "AVLT-REY",
            "FORM 1",
            "NOT RECALLED",
            "NOT RECALLED",
            null,
            "Y",
            4,
            2,
            "SCREENING 2",
            "SCREENING",
            "2012-11-28T12:15",
            -2,
            "",
            null,
            "",
            ""
          ],
          [
            58,
            "CDISCPILOT01",
            "FT",
            "CDISC001",
            58,
            "AVL0207",
            "AVL02-List A Word 7",
            "AVLT-REY",
            "FORM 1",
            "RECALLED",
            "RECALLED",
            null,
            "Y",
            4,
            2,
            "SCREENING 2",
            "SCREENING",
            "2012-11-28T12:15",
            -2,
            "",
            null,
            "",
            ""
          ],
          [
            59,
            "CDISCPILOT01",
            "FT",
            "CDISC001",
            59,
            "AVL0208",
            "AVL02-List A Word 8",
            "AVLT-REY",
            "FORM 1",
            "NOT RECALLED",
            "NOT RECALLED",
            null,
            "Y",
            4,
            2,
            "SCREENING 2",
            "SCREENING",
            "2012-11-28T12:15",
            -2,
            "",
            null,
            "",
            ""
          ],
          [
            60,
            "CDISCPILOT01",
            "FT",
            "CDISC001",
            60,
            "AVL0209",
            "AVL02-List A Word 9",
            "AVLT-REY",
            "FORM 1",
            "RECALLED",
            "RECALLED",
            null,
            "Y",
            4,
            2,
            "SCREENING 2",
            "SCREENING",
            "2012-11-28T12:15",
            -2,
            "",
            null,
            "",
            ""
          ],
          [
            61,
            "CDISCPILOT01",
            "FT",
            "CDISC001",
            61,
            "AVL0210",
            "AVL02-List A Word 10",
            "AVLT-REY",
            "FORM 1",
            "RECALLED",
            "RECALLED",
            null,
            "Y",
            4,
            2,
            "SCREENING 2",
            "SCREENING",
            "2012-11-28T12:15",
            -2,
            "",
            null,
            "",
            ""
          ],
          [
            62,
            "CDISCPILOT01",
            "FT",
            "CDISC001",
            62,
            "AVL0211",
            "AVL02-List A Word 11",
            "AVLT-REY",
            "FORM 1",
            "RECALLED",
            "RECALLED",
            null,
            "Y",
            4,
            2,
            "SCREENING 2",
            "SCREENING",
            "2012-11-28T12:15",
            -2,
            "",
            null,
            "",
            ""
          ],
          [
            63,
            "CDISCPILOT01",
            "FT",
            "CDISC001",
            63,
            "AVL0212",
            "AVL02-List A Word 12",
            "AVLT-REY",
            "FORM 1",
            "NOT RECALLED",
            "NOT RECALLED",
            null,
            "Y",
            4,
            2,
            "SCREENING 2",
            "SCREENING",
            "2012-11-28T12:15",
            -2,
            "",
            null,
            "",
            ""
          ],
          [
            64,
            "CDISCPILOT01",
            "FT",
            "CDISC001",
            64,
            "AVL0213",
            "AVL02-List A Word 13",
            "AVLT-REY",
            "FORM 1",
            "NOT RECALLED",
            "NOT RECALLED",
            null,
            "Y",
            4,
            2,
            "SCREENING 2",
            "SCREENING",
            "2012-11-28T12:15",
            -2,
            "",
            null,
            "",
            ""
          ],
          [
            65,
            "CDISCPILOT01",
            "FT",
            "CDISC001",
            65,
            "AVL0214",
            "AVL02-List A Word 14",
            "AVLT-REY",
            "FORM 1",
            "NOT RECALLED",
            "NOT RECALLED",
            null,
            "Y",
            4,
            2,
            "SCREENING 2",
            "SCREENING",
            "2012-11-28T12:15",
            -2,
            "",
            null,
            "",
            ""
          ],
          [
            66,
            "CDISCPILOT01",
            "FT",
            "CDISC001",
            66,
            "AVL0215",
            "AVL02-List A Word 15",
            "AVLT-REY",
            "FORM 1",
            "NOT RECALLED",
            "NOT RECALLED",
            null,
            "Y",
            4,
            2,
            "SCREENING 2",
            "SCREENING",
            "2012-11-28T12:15",
            -2,
            "",
            null,
            "",
            ""
          ],
          [
            67,
            "CDISCPILOT01",
            "FT",
            "CDISC001",
            67,
            "AVL0216",
            "AVL02-List A Total",
            "AVLT-REY",
            "FORM 1",
            "8",
            "8",
            8,
            "Y",
            4,
            2,
            "SCREENING 2",
            "SCREENING",
            "2012-11-28T12:15",
            -2,
            "",
            null,
            "",
            ""
          ],
          [
            68,
            "CDISCPILOT01",
            "FT",
            "CDISC001",
            68,
            "AVL0217",
            "AVL02-List A Intrusions",
            "AVLT-REY",
            "FORM 1",
            "1",
            "1",
            1,
            "Y",
            4,
            2,
            "SCREENING 2",
            "SCREENING",
            "2012-11-28T12:15",
            -2,
            "",
            null,
            "",
            ""
          ],
          [
            69,
            "CDISCPILOT01",
            "FT",
            "CDISC001",
            69,
            "AVL0201",
            "AVL02-List A Word 1",
            "AVLT-REY",
            "FORM 1",
            "RECALLED",
            "RECALLED",
            null,
            "Y",
            5,
            2,
            "SCREENING 2",
            "SCREENING",
            "2012-11-28T12:20",
            -2,
            "",
            null,
            "",
            ""
          ],
          [
            70,
            "CDISCPILOT01",
            "FT",
            "CDISC001",
            70,
            "AVL0202",
            "AVL02-List A Word 2",
            "AVLT-REY",
            "FORM 1",
            "RECALLED",
            "RECALLED",
            null,
            "Y",
            5,
            2,
            "SCREENING 2",
            "SCREENING",
            "2012-11-28T12:20",
            -2,
            "",
            null,
            "",
            ""
          ],
          [
            71,
            "CDISCPILOT01",
            "FT",
            "CDISC001",
            71,
            "AVL0203",
            "AVL02-List A Word 3",
            "AVLT-REY",
            "FORM 1",
            "NOT RECALLED",
            "NOT RECALLED",
            null,
            "Y",
            5,
            2,
            "SCREENING 2",
            "SCREENING",
            "2012-11-28T12:20",
            -2,
            "",
            null,
            "",
            ""
          ],
          [
            72,
            "CDISCPILOT01",
            "FT",
            "CDISC001",
            72,
            "AVL0204",
            "AVL02-List A Word 4",
            "AVLT-REY",
            "FORM 1",
            "RECALLED",
            "RECALLED",
            null,
            "Y",
            5,
            2,
            "SCREENING 2",
            "SCREENING",
            "2012-11-28T12:20",
            -2,
            "",
            null,
            "",
            ""
          ],
          [
            73,
            "CDISCPILOT01",
            "FT",
            "CDISC001",
            73,
            "AVL0205",
            "AVL02-List A Word 5",
            "AVLT-REY",
            "FORM 1",
            "RECALLED",
            "RECALLED",
            null,
            "Y",
            5,
            2,
            "SCREENING 2",
            "SCREENING",
            "2012-11-28T12:20",
            -2,
            "",
            null,
            "",
            ""
          ],
          [
            74,
            "CDISCPILOT01",
            "FT",
            "CDISC001",
            74,
            "AVL0206",
            "AVL02-List A Word 6",
            "AVLT-REY",
            "FORM 1",
            "NOT RECALLED",
            "NOT RECALLED",
            null,
            "Y",
            5,
            2,
            "SCREENING 2",
            "SCREENING",
            "2012-11-28T12:20",
            -2,
            "",
            null,
            "",
            ""
          ],
          [
            75,
            "CDISCPILOT01",
            "FT",
            "CDISC001",
            75,
            "AVL0207",
            "AVL02-List A Word 7",
            "AVLT-REY",
            "FORM 1",
            "RECALLED",
            "RECALLED",
            null,
            "Y",
            5,
            2,
            "SCREENING 2",
            "SCREENING",
            "2012-11-28T12:20",
            -2,
            "",
            null,
            "",
            ""
          ],
          [
            76,
            "CDISCPILOT01",
            "FT",
            "CDISC001",
            76,
            "AVL0208",
            "AVL02-List A Word 8",
            "AVLT-REY",
            "FORM 1",
            "NOT RECALLED",
            "NOT RECALLED",
            null,
            "Y",
            5,
            2,
            "SCREENING 2",
            "SCREENING",
            "2012-11-28T12:20",
            -2,
            "",
            null,
            "",
            ""
          ],
          [
            77,
            "CDISCPILOT01",
            "FT",
            "CDISC001",
            77,
            "AVL0209",
            "AVL02-List A Word 9",
            "AVLT-REY",
            "FORM 1",
            "RECALLED",
            "RECALLED",
            null,
            "Y",
            5,
            2,
            "SCREENING 2",
            "SCREENING",
            "2012-11-28T12:20",
            -2,
            "",
            null,
            "",
            ""
          ],
          [
            78,
            "CDISCPILOT01",
            "FT",
            "CDISC001",
            78,
            "AVL0210",
            "AVL02-List A Word 10",
            "AVLT-REY",
            "FORM 1",
            "RECALLED",
            "RECALLED",
            null,
            "Y",
            5,
            2,
            "SCREENING 2",
            "SCREENING",
            "2012-11-28T12:20",
            -2,
            "",
            null,
            "",
            ""
          ],
          [
            79,
            "CDISCPILOT01",
            "FT",
            "CDISC001",
            79,
            "AVL0211",
            "AVL02-List A Word 11",
            "AVLT-REY",
            "FORM 1",
            "RECALLED",
            "RECALLED",
            null,
            "Y",
            5,
            2,
            "SCREENING 2",
            "SCREENING",
            "2012-11-28T12:20",
            -2,
            "",
            null,
            "",
            ""
          ],
          [
            80,
            "CDISCPILOT01",
            "FT",
            "CDISC001",
            80,
            "AVL0212",
            "AVL02-List A Word 12",
            "AVLT-REY",
            "FORM 1",
            "NOT RECALLED",
            "NOT RECALLED",
            null,
            "Y",
            5,
            2,
            "SCREENING 2",
            "SCREENING",
            "2012-11-28T12:20",
            -2,
            "",
            null,
            "",
            ""
          ],
          [
            81,
            "CDISCPILOT01",
            "FT",
            "CDISC001",
            81,
            "AVL0213",
            "AVL02-List A Word 13",
            "AVLT-REY",
            "FORM 1",
            "NOT RECALLED",
            "NOT RECALLED",
            null,
            "Y",
            5,
            2,
            "SCREENING 2",
            "SCREENING",
            "2012-11-28T12:20",
            -2,
            "",
            null,
            "",
            ""
          ],
          [
            82,
            "CDISCPILOT01",
            "FT",
            "CDISC001",
            82,
            "AVL0214",
            "AVL02-List A Word 14",
            "AVLT-REY",
            "FORM 1",
            "NOT RECALLED",
            "NOT RECALLED",
            null,
            "Y",
            5,
            2,
            "SCREENING 2",
            "SCREENING",
            "2012-11-28T12:20",
            -2,
            "",
            null,
            "",
            ""
          ],
          [
            83,
            "CDISCPILOT01",
            "FT",
            "CDISC001",
            83,
            "AVL0215",
            "AVL02-List A Word 15",
            "AVLT-REY",
            "FORM 1",
            "NOT RECALLED",
            "NOT RECALLED",
            null,
            "Y",
            5,
            2,
            "SCREENING 2",
            "SCREENING",
            "2012-11-28T12:20",
            -2,
            "",
            null,
            "",
            ""
          ],
          [
            84,
            "CDISCPILOT01",
            "FT",
            "CDISC001",
            84,
            "AVL0216",
            "AVL02-List A Total",
            "AVLT-REY",
            "FORM 1",
            "8",
            "8",
            8,
            "Y",
            5,
            2,
            "SCREENING 2",
            "SCREENING",
            "2012-11-28T12:20",
            -2,
            "",
            null,
            "",
            ""
          ],
          [
            85,
            "CDISCPILOT01",
            "FT",
            "CDISC001",
            85,
            "AVL0217",
            "AVL02-List A Intrusions",
            "AVLT-REY",
            "FORM 1",
            "2",
            "2",
            2,
            "Y",
            5,
            2,
            "SCREENING 2",
            "SCREENING",
            "2012-11-28T12:20",
            -2,
            "",
            null,
            "",
            ""
          ],
          [
            86,
            "CDISCPILOT01",
            "FT",
            "CDISC001",
            86,
            "AVL0218",
            "AVL02-List B Word 1",
            "AVLT-REY",
            "FORM 1",
            "RECALLED",
            "RECALLED",
            null,
            "Y",
            null,
            2,
            "SCREENING 2",
            "SCREENING",
            "2012-11-28T12:25",
            -2,
            "",
            null,
            "",
            ""
          ],
          [
            87,
            "CDISCPILOT01",
            "FT",
            "CDISC001",
            87,
            "AVL0219",
            "AVL02-List B Word 2",
            "AVLT-REY",
            "FORM 1",
            "NOT RECALLED",
            "NOT RECALLED",
            null,
            "Y",
            null,
            2,
            "SCREENING 2",
            "SCREENING",
            "2012-11-28T12:25",
            -2,
            "",
            null,
            "",
            ""
          ],
          [
            88,
            "CDISCPILOT01",
            "FT",
            "CDISC001",
            88,
            "AVL0220",
            "AVL02-List B Word 3",
            "AVLT-REY",
            "FORM 1",
            "NOT RECALLED",
            "NOT RECALLED",
            null,
            "Y",
            null,
            2,
            "SCREENING 2",
            "SCREENING",
            "2012-11-28T12:25",
            -2,
            "",
            null,
            "",
            ""
          ],
          [
            89,
            "CDISCPILOT01",
            "FT",
            "CDISC001",
            89,
            "AVL0221",
            "AVL02-List B Word 4",
            "AVLT-REY",
            "FORM 1",
            "RECALLED",
            "RECALLED",
            null,
            "Y",
            null,
            2,
            "SCREENING 2",
            "SCREENING",
            "2012-11-28T12:25",
            -2,
            "",
            null,
            "",
            ""
          ],
          [
            90,
            "CDISCPILOT01",
            "FT",
            "CDISC001",
            90,
            "AVL0222",
            "AVL02-List B Word 5",
            "AVLT-REY",
            "FORM 1",
            "RECALLED",
            "RECALLED",
            null,
            "Y",
            null,
            2,
            "SCREENING 2",
            "SCREENING",
            "2012-11-28T12:25",
            -2,
            "",
            null,
            "",
            ""
          ],
          [
            91,
            "CDISCPILOT01",
            "FT",
            "CDISC001",
            91,
            "AVL0223",
            "AVL02-List B Word 6",
            "AVLT-REY",
            "FORM 1",
            "NOT RECALLED",
            "NOT RECALLED",
            null,
            "Y",
            null,
            2,
            "SCREENING 2",
            "SCREENING",
            "2012-11-28T12:25",
            -2,
            "",
            null,
            "",
            ""
          ],
          [
            92,
            "CDISCPILOT01",
            "FT",
            "CDISC001",
            92,
            "AVL0224",
            "AVL02-List B Word 7",
            "AVLT-REY",
            "FORM 1",
            "NOT RECALLED",
            "NOT RECALLED",
            null,
            "Y",
            null,
            2,
            "SCREENING 2",
            "SCREENING",
            "2012-11-28T12:25",
            -2,
            "",
            null,
            "",
            ""
          ],
          [
            93,
            "CDISCPILOT01",
            "FT",
            "CDISC001",
            93,
            "AVL0225",
            "AVL02-List B Word 8",
            "AVLT-REY",
            "FORM 1",
            "RECALLED",
            "RECALLED",
            null,
            "Y",
            null,
            2,
            "SCREENING 2",
            "SCREENING",
            "2012-11-28T12:25",
            -2,
            "",
            null,
            "",
            ""
          ],
          [
            94,
            "CDISCPILOT01",
            "FT",
            "CDISC001",
            94,
            "AVL0226",
            "AVL02-List B Word 9",
            "AVLT-REY",
            "FORM 1",
            "NOT RECALLED",
            "NOT RECALLED",
            null,
            "Y",
            null,
            2,
            "SCREENING 2",
            "SCREENING",
            "2012-11-28T12:25",
            -2,
            "",
            null,
            "",
            ""
          ],
          [
            95,
            "CDISCPILOT01",
            "FT",
            "CDISC001",
            95,
            "AVL0227",
            "AVL02-List B Word 10",
            "AVLT-REY",
            "FORM 1",
            "NOT RECALLED",
            "NOT RECALLED",
            null,
            "Y",
            null,
            2,
            "SCREENING 2",
            "SCREENING",
            "2012-11-28T12:25",
            -2,
            "",
            null,
            "",
            ""
          ],
          [
            96,
            "CDISCPILOT01",
            "FT",
            "CDISC001",
            96,
            "AVL0228",
            "AVL02-List B Word 11",
            "AVLT-REY",
            "FORM 1",
            "RECALLED",
            "RECALLED",
            null,
            "Y",
            null,
            2,
            "SCREENING 2",
            "SCREENING",
            "2012-11-28T12:25",
            -2,
            "",
            null,
            "",
            ""
          ],
          [
            97,
            "CDISCPILOT01",
            "FT",
            "CDISC001",
            97,
            "AVL0229",
            "AVL02-List B Word 12",
            "AVLT-REY",
            "FORM 1",
            "NOT RECALLED",
            "NOT RECALLED",
            null,
            "Y",
            null,
            2,
            "SCREENING 2",
            "SCREENING",
            "2012-11-28T12:25",
            -2,
            "",
            null,
            "",
            ""
          ],
          [
            98,
            "CDISCPILOT01",
            "FT",
            "CDISC001",
            98,
            "AVL0230",
            "AVL02-List B Word 13",
            "AVLT-REY",
            "FORM 1",
            "RECALLED",
            "RECALLED",
            null,
            "Y",
            null,
            2,
            "SCREENING 2",
            "SCREENING",
            "2012-11-28T12:25",
            -2,
            "",
            null,
            "",
            ""
          ],
          [
            99,
            "CDISCPILOT01",
            "FT",
            "CDISC001",
            99,
            "AVL0231",
            "AVL02-List B Word 14",
            "AVLT-REY",
            "FORM 1",
            "RECALLED",
            "RECALLED",
            null,
            "Y",
            null,
            2,
            "SCREENING 2",
            "SCREENING",
            "2012-11-28T12:25",
            -2,
            "",
            null,
            "",
            ""
          ],
          [
            100,
            "CDISCPILOT01",
            "FT",
            "CDISC001",
            100,
            "AVL0232",
            "AVL02-List B Word 15",
            "AVLT-REY",
            "FORM 1",
            "RECALLED",
            "RECALLED",
            null,
            "Y",
            null,
            2,
            "SCREENING 2",
            "SCREENING",
            "2012-11-28T12:25",
            -2,
            "",
            null,
            "",
            ""
          ],
          [
            101,
            "CDISCPILOT01",
            "FT",
            "CDISC001",
            101,
            "AVL0233",
            "AVL02- List B Total",
            "AVLT-REY",
            "FORM 1",
            "8",
            "8",
            8,
            "Y",
            null,
            2,
            "SCREENING 2",
            "SCREENING",
            "2012-11-28T12:25",
            -2,
            "",
            null,
            "",
            ""
          ],
          [
            102,
            "CDISCPILOT01",
            "FT",
            "CDISC001",
            102,
            "AVL0234",
            "AVL02-List B Intrusions",
            "AVLT-REY",
            "FORM 1",
            "1",
            "1",
            1,
            "Y",
            null,
            2,
            "SCREENING 2",
            "SCREENING",
            "2012-11-28T12:25",
            -2,
            "",
            null,
            "",
            ""
          ],
          [
            103,
            "CDISCPILOT01",
            "FT",
            "CDISC001",
            103,
            "AVL0201",
            "AVL02-List A Word 1",
            "AVLT-REY",
            "FORM 1",
            "RECALLED",
            "RECALLED",
            null,
            "Y",
            6,
            2,
            "SCREENING 2",
            "SCREENING",
            "2012-11-28T12:30",
            -2,
            "",
            null,
            "",
            ""
          ],
          [
            104,
            "CDISCPILOT01",
            "FT",
            "CDISC001",
            104,
            "AVL0202",
            "AVL02-List A Word 2",
            "AVLT-REY",
            "FORM 1",
            "RECALLED",
            "RECALLED",
            null,
            "Y",
            6,
            2,
            "SCREENING 2",
            "SCREENING",
            "2012-11-28T12:30",
            -2,
            "",
            null,
            "",
            ""
          ],
          [
            105,
            "CDISCPILOT01",
            "FT",
            "CDISC001",
            105,
            "AVL0203",
            "AVL02-List A Word 3",
            "AVLT-REY",
            "FORM 1",
            "NOT RECALLED",
            "NOT RECALLED",
            null,
            "Y",
            6,
            2,
            "SCREENING 2",
            "SCREENING",
            "2012-11-28T12:30",
            -2,
            "",
            null,
            "",
            ""
          ],
          [
            106,
            "CDISCPILOT01",
            "FT",
            "CDISC001",
            106,
            "AVL0204",
            "AVL02-List A Word 4",
            "AVLT-REY",
            "FORM 1",
            "RECALLED",
            "RECALLED",
            null,
            "Y",
            6,
            2,
            "SCREENING 2",
            "SCREENING",
            "2012-11-28T12:30",
            -2,
            "",
            null,
            "",
            ""
          ],
          [
            107,
            "CDISCPILOT01",
            "FT",
            "CDISC001",
            107,
            "AVL0205",
            "AVL02-List A Word 5",
            "AVLT-REY",
            "FORM 1",
            "RECALLED",
            "RECALLED",
            null,
            "Y",
            6,
            2,
            "SCREENING 2",
            "SCREENING",
            "2012-11-28T12:30",
            -2,
            "",
            null,
            "",
            ""
          ],
          [
            108,
            "CDISCPILOT01",
            "FT",
            "CDISC001",
            108,
            "AVL0206",
            "AVL02-List A Word 6",
            "AVLT-REY",
            "FORM 1",
            "NOT RECALLED",
            "NOT RECALLED",
            null,
            "Y",
            6,
            2,
            "SCREENING 2",
            "SCREENING",
            "2012-11-28T12:30",
            -2,
            "",
            null,
            "",
            ""
          ],
          [
            109,
            "CDISCPILOT01",
            "FT",
            "CDISC001",
            109,
            "AVL0207",
            "AVL02-List A Word 7",
            "AVLT-REY",
            "FORM 1",
            "RECALLED",
            "RECALLED",
            null,
            "Y",
            6,
            2,
            "SCREENING 2",
            "SCREENING",
            "2012-11-28T12:30",
            -2,
            "",
            null,
            "",
            ""
          ],
          [
            110,
            "CDISCPILOT01",
            "FT",
            "CDISC001",
            110,
            "AVL0208",
            "AVL02-List A Word 8",
            "AVLT-REY",
            "FORM 1",
            "NOT RECALLED",
            "NOT RECALLED",
            null,
            "Y",
            6,
            2,
            "SCREENING 2",
            "SCREENING",
            "2012-11-28T12:30",
            -2,
            "",
            null,
            "",
            ""
          ],
          [
            111,
            "CDISCPILOT01",
            "FT",
            "CDISC001",
            111,
            "AVL0209",
            "AVL02-List A Word 9",
            "AVLT-REY",
            "FORM 1",
            "RECALLED",
            "RECALLED",
            null,
            "Y",
            6,
            2,
            "SCREENING 2",
            "SCREENING",
            "2012-11-28T12:30",
            -2,
            "",
            null,
            "",
            ""
          ],
          [
            112,
            "CDISCPILOT01",
            "FT",
            "CDISC001",
            112,
            "AVL0210",
            "AVL02-List A Word 10",
            "AVLT-REY",
            "FORM 1",
            "RECALLED",
            "RECALLED",
            null,
            "Y",
            6,
            2,
            "SCREENING 2",
            "SCREENING",
            "2012-11-28T12:30",
            -2,
            "",
            null,
            "",
            ""
          ],
          [
            113,
            "CDISCPILOT01",
            "FT",
            "CDISC001",
            113,
            "AVL0211",
            "AVL02-List A Word 11",
            "AVLT-REY",
            "FORM 1",
            "RECALLED",
            "RECALLED",
            null,
            "Y",
            6,
            2,
            "SCREENING 2",
            "SCREENING",
            "2012-11-28T12:30",
            -2,
            "",
            null,
            "",
            ""
          ],
          [
            114,
            "CDISCPILOT01",
            "FT",
            "CDISC001",
            114,
            "AVL0212",
            "AVL02-List A Word 12",
            "AVLT-REY",
            "FORM 1",
            "NOT RECALLED",
            "NOT RECALLED",
            null,
            "Y",
            6,
            2,
            "SCREENING 2",
            "SCREENING",
            "2012-11-28T12:30",
            -2,
            "",
            null,
            "",
            ""
          ],
          [
            115,
            "CDISCPILOT01",
            "FT",
            "CDISC001",
            115,
            "AVL0213",
            "AVL02-List A Word 13",
            "AVLT-REY",
            "FORM 1",
            "NOT RECALLED",
            "NOT RECALLED",
            null,
            "Y",
            6,
            2,
            "SCREENING 2",
            "SCREENING",
            "2012-11-28T12:30",
            -2,
            "",
            null,
            "",
            ""
          ],
          [
            116,
            "CDISCPILOT01",
            "FT",
            "CDISC001",
            116,
            "AVL0214",
            "AVL02-List A Word 14",
            "AVLT-REY",
            "FORM 1",
            "NOT RECALLED",
            "NOT RECALLED",
            null,
            "Y",
            6,
            2,
            "SCREENING 2",
            "SCREENING",
            "2012-11-28T12:30",
            -2,
            "",
            null,
            "",
            ""
          ],
          [
            117,
            "CDISCPILOT01",
            "FT",
            "CDISC001",
            117,
            "AVL0215",
            "AVL02-List A Word 15",
            "AVLT-REY",
            "FORM 1",
            "NOT RECALLED",
            "NOT RECALLED",
            null,
            "Y",
            6,
            2,
            "SCREENING 2",
            "SCREENING",
            "2012-11-28T12:30",
            -2,
            "",
            null,
            "",
            ""
          ],
          [
            118,
            "CDISCPILOT01",
            "FT",
            "CDISC001",
            118,
            "AVL0216",
            "AVL02-List A Total",
            "AVLT-REY",
            "FORM 1",
            "8",
            "8",
            8,
            "Y",
            6,
            2,
            "SCREENING 2",
            "SCREENING",
            "2012-11-28T12:30",
            -2,
            "",
            null,
            "",
            ""
          ],
          [
            119,
            "CDISCPILOT01",
            "FT",
            "CDISC001",
            119,
            "AVL0217",
            "AVL02-List A Intrusions",
            "AVLT-REY",
            "FORM 1",
            "0",
            "0",
            0,
            "Y",
            6,
            2,
            "SCREENING 2",
            "SCREENING",
            "2012-11-28T12:30",
            -2,
            "",
            null,
            "",
            ""
          ],
          [
            120,
            "CDISCPILOT01",
            "FT",
            "CDISC001",
            120,
            "AVL0201",
            "AVL02-List A Word 1",
            "AVLT-REY",
            "FORM 1",
            "RECALLED",
            "RECALLED",
            null,
            "Y",
            7,
            2,
            "SCREENING 2",
            "SCREENING",
            "2012-11-28T13:00",
            -2,
            "30 MIN POST",
            1,
            "PT30M",
            "LIST A RECALL 6"
          ],
          [
            121,
            "CDISCPILOT01",
            "FT",
            "CDISC001",
            121,
            "AVL0202",
            "AVL02-List A Word 2",
            "AVLT-REY",
            "FORM 1",
            "RECALLED",
            "RECALLED",
            null,
            "Y",
            7,
            2,
            "SCREENING 2",
            "SCREENING",
            "2012-11-28T13:00",
            -2,
            "30 MIN POST",
            1,
            "PT30M",
            "LIST A RECALL 6"
          ],
          [
            122,
            "CDISCPILOT01",
            "FT",
            "CDISC001",
            122,
            "AVL0203",
            "AVL02-List A Word 3",
            "AVLT-REY",
            "FORM 1",
            "NOT RECALLED",
            "NOT RECALLED",
            null,
            "Y",
            7,
            2,
            "SCREENING 2",
            "SCREENING",
            "2012-11-28T13:00",
            -2,
            "30 MIN POST",
            1,
            "PT30M",
            "LIST A RECALL 6"
          ],
          [
            123,
            "CDISCPILOT01",
            "FT",
            "CDISC001",
            123,
            "AVL0204",
            "AVL02-List A Word 4",
            "AVLT-REY",
            "FORM 1",
            "RECALLED",
            "RECALLED",
            null,
            "Y",
            7,
            2,
            "SCREENING 2",
            "SCREENING",
            "2012-11-28T13:00",
            -2,
            "30 MIN POST",
            1,
            "PT30M",
            "LIST A RECALL 6"
          ],
          [
            124,
            "CDISCPILOT01",
            "FT",
            "CDISC001",
            124,
            "AVL0205",
            "AVL02-List A Word 5",
            "AVLT-REY",
            "FORM 1",
            "RECALLED",
            "RECALLED",
            null,
            "Y",
            7,
            2,
            "SCREENING 2",
            "SCREENING",
            "2012-11-28T13:00",
            -2,
            "30 MIN POST",
            1,
            "PT30M",
            "LIST A RECALL 6"
          ],
          [
            125,
            "CDISCPILOT01",
            "FT",
            "CDISC001",
            125,
            "AVL0206",
            "AVL02-List A Word 6",
            "AVLT-REY",
            "FORM 1",
            "RECALLED",
            "RECALLED",
            null,
            "Y",
            7,
            2,
            "SCREENING 2",
            "SCREENING",
            "2012-11-28T13:00",
            -2,
            "30 MIN POST",
            1,
            "PT30M",
            "LIST A RECALL 6"
          ],
          [
            126,
            "CDISCPILOT01",
            "FT",
            "CDISC001",
            126,
            "AVL0207",
            "AVL02-List A Word 7",
            "AVLT-REY",
            "FORM 1",
            "RECALLED",
            "RECALLED",
            null,
            "Y",
            7,
            2,
            "SCREENING 2",
            "SCREENING",
            "2012-11-28T13:00",
            -2,
            "30 MIN POST",
            1,
            "PT30M",
            "LIST A RECALL 6"
          ],
          [
            127,
            "CDISCPILOT01",
            "FT",
            "CDISC001",
            127,
            "AVL0208",
            "AVL02-List A Word 8",
            "AVLT-REY",
            "FORM 1",
            "NOT RECALLED",
            "NOT RECALLED",
            null,
            "Y",
            7,
            2,
            "SCREENING 2",
            "SCREENING",
            "2012-11-28T13:00",
            -2,
            "30 MIN POST",
            1,
            "PT30M",
            "LIST A RECALL 6"
          ],
          [
            128,
            "CDISCPILOT01",
            "FT",
            "CDISC001",
            128,
            "AVL0209",
            "AVL02-List A Word 9",
            "AVLT-REY",
            "FORM 1",
            "NOT RECALLED",
            "NOT RECALLED",
            null,
            "Y",
            7,
            2,
            "SCREENING 2",
            "SCREENING",
            "2012-11-28T13:00",
            -2,
            "30 MIN POST",
            1,
            "PT30M",
            "LIST A RECALL 6"
          ],
          [
            129,
            "CDISCPILOT01",
            "FT",
            "CDISC001",
            129,
            "AVL0210",
            "AVL02-List A Word 10",
            "AVLT-REY",
            "FORM 1",
            "NOT RECALLED",
            "NOT RECALLED",
            null,
            "Y",
            7,
            2,
            "SCREENING 2",
            "SCREENING",
            "2012-11-28T13:00",
            -2,
            "30 MIN POST",
            1,
            "PT30M",
            "LIST A RECALL 6"
          ],
          [
            130,
            "CDISCPILOT01",
            "FT",
            "CDISC001",
            130,
            "AVL0211",
            "AVL02-List A Word 11",
            "AVLT-REY",
            "FORM 1",
            "NOT RECALLED",
            "NOT RECALLED",
            null,
            "Y",
            7,
            2,
            "SCREENING 2",
            "SCREENING",
            "2012-11-28T13:00",
            -2,
            "30 MIN POST",
            1,
            "PT30M",
            "LIST A RECALL 6"
          ],
          [
            131,
            "CDISCPILOT01",
            "FT",
            "CDISC001",
            131,
            "AVL0212",
            "AVL02-List A Word 12",
            "AVLT-REY",
            "FORM 1",
            "NOT RECALLED",
            "NOT RECALLED",
            null,
            "Y",
            7,
            2,
            "SCREENING 2",
            "SCREENING",
            "2012-11-28T13:00",
            -2,
            "30 MIN POST",
            1,
            "PT30M",
            "LIST A RECALL 6"
          ],
          [
            132,
            "CDISCPILOT01",
            "FT",
            "CDISC001",
            132,
            "AVL0213",
            "AVL02-List A Word 13",
            "AVLT-REY",
            "FORM 1",
            "RECALLED",
            "RECALLED",
            null,
            "Y",
            7,
            2,
            "SCREENING 2",
            "SCREENING",
            "2012-11-28T13:00",
            -2,
            "30 MIN POST",
            1,
            "PT30M",
            "LIST A RECALL 6"
          ],
          [
            133,
            "CDISCPILOT01",
            "FT",
            "CDISC001",
            133,
            "AVL0214",
            "AVL02-List A Word 14",
            "AVLT-REY",
            "FORM 1",
            "NOT RECALLED",
            "NOT RECALLED",
            null,
            "Y",
            7,
            2,
            "SCREENING 2",
            "SCREENING",
            "2012-11-28T13:00",
            -2,
            "30 MIN POST",
            1,
            "PT30M",
            "LIST A RECALL 6"
          ],
          [
            134,
            "CDISCPILOT01",
            "FT",
            "CDISC001",
            134,
            "AVL0215",
            "AVL02-List A Word 15",
            "AVLT-REY",
            "FORM 1",
            "NOT RECALLED",
            "NOT RECALLED",
            null,
            "Y",
            7,
            2,
            "SCREENING 2",
            "SCREENING",
            "2012-11-28T13:00",
            -2,
            "30 MIN POST",
            1,
            "PT30M",
            "LIST A RECALL 6"
          ],
          [
            135,
            "CDISCPILOT01",
            "FT",
            "CDISC001",
            135,
            "AVL0216",
            "AVL02-List A Total",
            "AVLT-REY",
            "FORM 1",
            "7",
            "7",
            7,
            "Y",
            7,
            2,
            "SCREENING 2",
            "SCREENING",
            "2012-11-28T13:00",
            -2,
            "30 MIN POST",
            1,
            "PT30M",
            "LIST A RECALL 6"
          ],
          [
            136,
            "CDISCPILOT01",
            "FT",
            "CDISC001",
            136,
            "AVL0217",
            "AVL02-List A Intrusions",
            "AVLT-REY",
            "FORM 1",
            "0",
            "0",
            0,
            "Y",
            7,
            2,
            "SCREENING 2",
            "SCREENING",
            "2012-11-28T13:00",
            -2,
            "30 MIN POST",
            1,
            "PT30M",
            "LIST A RECALL 6"
          ],
          [
            137,
            "CDISCPILOT01",
            "FT",
            "CDISC001",
            137,
            "AVL0201",
            "AVL02-List A Word 1",
            "AVLT-REY",
            "FORM 1",
            "RECALLED",
            "RECALLED",
            null,
            "",
            1,
            8,
            "WEEK 8",
            "TREATMENT",
            "2013-01-23T12:00",
            55,
            "",
            null,
            "",
            ""
          ],
          [
            138,
            "CDISCPILOT01",
            "FT",
            "CDISC001",
            138,
            "AVL0202",
            "AVL02-List A Word 2",
            "AVLT-REY",
            "FORM 1",
            "NOT RECALLED",
            "NOT RECALLED",
            null,
            "",
            1,
            8,
            "WEEK 8",
            "TREATMENT",
            "2013-01-23T12:00",
            55,
            "",
            null,
            "",
            ""
          ],
          [
            139,
            "CDISCPILOT01",
            "FT",
            "CDISC001",
            139,
            "AVL0203",
            "AVL02-List A Word 3",
            "AVLT-REY",
            "FORM 1",
            "NOT RECALLED",
            "NOT RECALLED",
            null,
            "",
            1,
            8,
            "WEEK 8",
            "TREATMENT",
            "2013-01-23T12:00",
            55,
            "",
            null,
            "",
            ""
          ],
          [
            140,
            "CDISCPILOT01",
            "FT",
            "CDISC001",
            140,
            "AVL0204",
            "AVL02-List A Word 4",
            "AVLT-REY",
            "FORM 1",
            "RECALLED",
            "RECALLED",
            null,
            "",
            1,
            8,
            "WEEK 8",
            "TREATMENT",
            "2013-01-23T12:00",
            55,
            "",
            null,
            "",
            ""
          ],
          [
            141,
            "CDISCPILOT01",
            "FT",
            "CDISC001",
            141,
            "AVL0205",
            "AVL02-List A Word 5",
            "AVLT-REY",
            "FORM 1",
            "RECALLED",
            "RECALLED",
            null,
            "",
            1,
            8,
            "WEEK 8",
            "TREATMENT",
            "2013-01-23T12:00",
            55,
            "",
            null,
            "",
            ""
          ],
          [
            142,
            "CDISCPILOT01",
            "FT",
            "CDISC001",
            142,
            "AVL0206",
            "AVL02-List A Word 6",
            "AVLT-REY",
            "FORM 1",
            "RECALLED",
            "RECALLED",
            null,
            "",
            1,
            8,
            "WEEK 8",
            "TREATMENT",
            "2013-01-23T12:00",
            55,
            "",
            null,
            "",
            ""
          ],
          [
            143,
            "CDISCPILOT01",
            "FT",
            "CDISC001",
            143,
            "AVL0207",
            "AVL02-List A Word 7",
            "AVLT-REY",
            "FORM 1",
            "RECALLED",
            "RECALLED",
            null,
            "",
            1,
            8,
            "WEEK 8",
            "TREATMENT",
            "2013-01-23T12:00",
            55,
            "",
            null,
            "",
            ""
          ],
          [
            144,
            "CDISCPILOT01",
            "FT",
            "CDISC001",
            144,
            "AVL0208",
            "AVL02-List A Word 8",
            "AVLT-REY",
            "FORM 1",
            "NOT RECALLED",
            "NOT RECALLED",
            null,
            "",
            1,
            8,
            "WEEK 8",
            "TREATMENT",
            "2013-01-23T12:00",
            55,
            "",
            null,
            "",
            ""
          ],
          [
            145,
            "CDISCPILOT01",
            "FT",
            "CDISC001",
            145,
            "AVL0209",
            "AVL02-List A Word 9",
            "AVLT-REY",
            "FORM 1",
            "NOT RECALLED",
            "NOT RECALLED",
            null,
            "",
            1,
            8,
            "WEEK 8",
            "TREATMENT",
            "2013-01-23T12:00",
            55,
            "",
            null,
            "",
            ""
          ],
          [
            146,
            "CDISCPILOT01",
            "FT",
            "CDISC001",
            146,
            "AVL0210",
            "AVL02-List A Word 10",
            "AVLT-REY",
            "FORM 1",
            "NOT RECALLED",
            "NOT RECALLED",
            null,
            "",
            1,
            8,
            "WEEK 8",
            "TREATMENT",
            "2013-01-23T12:00",
            55,
            "",
            null,
            "",
            ""
          ],
          [
            147,
            "CDISCPILOT01",
            "FT",
            "CDISC001",
            147,
            "AVL0211",
            "AVL02-List A Word 11",
            "AVLT-REY",
            "FORM 1",
            "NOT RECALLED",
            "NOT RECALLED",
            null,
            "",
            1,
            8,
            "WEEK 8",
            "TREATMENT",
            "2013-01-23T12:00",
            55,
            "",
            null,
            "",
            ""
          ],
          [
            148,
            "CDISCPILOT01",
            "FT",
            "CDISC001",
            148,
            "AVL0212",
            "AVL02-List A Word 12",
            "AVLT-REY",
            "FORM 1",
            "NOT RECALLED",
            "NOT RECALLED",
            null,
            "",
            1,
            8,
            "WEEK 8",
            "TREATMENT",
            "2013-01-23T12:00",
            55,
            "",
            null,
            "",
            ""
          ],
          [
            149,
            "CDISCPILOT01",
            "FT",
            "CDISC001",
            149,
            "AVL0213",
            "AVL02-List A Word 13",
            "AVLT-REY",
            "FORM 1",
            "NOT RECALLED",
            "NOT RECALLED",
            null,
            "",
            1,
            8,
            "WEEK 8",
            "TREATMENT",
            "2013-01-23T12:00",
            55,
            "",
            null,
            "",
            ""
          ],
          [
            150,
            "CDISCPILOT01",
            "FT",
            "CDISC001",
            150,
            "AVL0214",
            "AVL02-List A Word 14",
            "AVLT-REY",
            "FORM 1",
            "NOT RECALLED",
            "NOT RECALLED",
            null,
            "",
            1,
            8,
            "WEEK 8",
            "TREATMENT",
            "2013-01-23T12:00",
            55,
            "",
            null,
            "",
            ""
          ],
          [
            151,
            "CDISCPILOT01",
            "FT",
            "CDISC001",
            151,
            "AVL0215",
            "AVL02-List A Word 15",
            "AVLT-REY",
            "FORM 1",
            "NOT RECALLED",
            "NOT RECALLED",
            null,
            "",
            1,
            8,
            "WEEK 8",
            "TREATMENT",
            "2013-01-23T12:00",
            55,
            "",
            null,
            "",
            ""
          ],
          [
            152,
            "CDISCPILOT01",
            "FT",
            "CDISC001",
            152,
            "AVL0216",
            "AVL02-List A Total",
            "AVLT-REY",
            "FORM 1",
            "5",
            "5",
            5,
            "",
            1,
            8,
            "WEEK 8",
            "TREATMENT",
            "2013-01-23T12:00",
            55,
            "",
            null,
            "",
            ""
          ],
          [
            153,
            "CDISCPILOT01",
            "FT",
            "CDISC001",
            153,
            "AVL0217",
            "AVL02-List A Intrusions",
            "AVLT-REY",
            "FORM 1",
            "0",
            "0",
            0,
            "",
            1,
            8,
            "WEEK 8",
            "TREATMENT",
            "2013-01-23T12:00",
            55,
            "",
            null,
            "",
            ""
          ],
          [
            154,
            "CDISCPILOT01",
            "FT",
            "CDISC001",
            154,
            "AVL0201",
            "AVL02-List A Word 1",
            "AVLT-REY",
            "FORM 1",
            "RECALLED",
            "RECALLED",
            null,
            "",
            2,
            8,
            "WEEK 8",
            "TREATMENT",
            "2013-01-23T12:05",
            55,
            "",
            null,
            "",
            ""
          ],
          [
            155,
            "CDISCPILOT01",
            "FT",
            "CDISC001",
            155,
            "AVL0202",
            "AVL02-List A Word 2",
            "AVLT-REY",
            "FORM 1",
            "NOT RECALLED",
            "NOT RECALLED",
            null,
            "",
            2,
            8,
            "WEEK 8",
            "TREATMENT",
            "2013-01-23T12:05",
            55,
            "",
            null,
            "",
            ""
          ],
          [
            156,
            "CDISCPILOT01",
            "FT",
            "CDISC001",
            156,
            "AVL0203",
            "AVL02-List A Word 3",
            "AVLT-REY",
            "FORM 1",
            "NOT RECALLED",
            "NOT RECALLED",
            null,
            "",
            2,
            8,
            "WEEK 8",
            "TREATMENT",
            "2013-01-23T12:05",
            55,
            "",
            null,
            "",
            ""
          ],
          [
            157,
            "CDISCPILOT01",
            "FT",
            "CDISC001",
            157,
            "AVL0204",
            "AVL02-List A Word 4",
            "AVLT-REY",
            "FORM 1",
            "RECALLED",
            "RECALLED",
            null,
            "",
            2,
            8,
            "WEEK 8",
            "TREATMENT",
            "2013-01-23T12:05",
            55,
            "",
            null,
            "",
            ""
          ],
          [
            158,
            "CDISCPILOT01",
            "FT",
            "CDISC001",
            158,
            "AVL0205",
            "AVL02-List A Word 5",
            "AVLT-REY",
            "FORM 1",
            "RECALLED",
            "RECALLED",
            null,
            "",
            2,
            8,
            "WEEK 8",
            "TREATMENT",
            "2013-01-23T12:05",
            55,
            "",
            null,
            "",
            ""
          ],
          [
            159,
            "CDISCPILOT01",
            "FT",
            "CDISC001",
            159,
            "AVL0206",
            "AVL02-List A Word 6",
            "AVLT-REY",
            "FORM 1",
            "RECALLED",
            "RECALLED",
            null,
            "",
            2,
            8,
            "WEEK 8",
            "TREATMENT",
            "2013-01-23T12:05",
            55,
            "",
            null,
            "",
            ""
          ],
          [
            160,
            "CDISCPILOT01",
            "FT",
            "CDISC001",
            160,
            "AVL0207",
            "AVL02-List A Word 7",
            "AVLT-REY",
            "FORM 1",
            "NOT RECALLED",
            "NOT RECALLED",
            null,
            "",
            2,
            8,
            "WEEK 8",
            "TREATMENT",
            "2013-01-23T12:05",
            55,
            "",
            null,
            "",
            ""
          ],
          [
            161,
            "CDISCPILOT01",
            "FT",
            "CDISC001",
            161,
            "AVL0208",
            "AVL02-List A Word 8",
            "AVLT-REY",
            "FORM 1",
            "NOT RECALLED",
            "NOT RECALLED",
            null,
            "",
            2,
            8,
            "WEEK 8",
            "TREATMENT",
            "2013-01-23T12:05",
            55,
            "",
            null,
            "",
            ""
          ],
          [
            162,
            "CDISCPILOT01",
            "FT",
            "CDISC001",
            162,
            "AVL0209",
            "AVL02-List A Word 9",
            "AVLT-REY",
            "FORM 1",
            "NOT RECALLED",
            "NOT RECALLED",
            null,
            "",
            2,
            8,
            "WEEK 8",
            "TREATMENT",
            "2013-01-23T12:05",
            55,
            "",
            null,
            "",
            ""
          ],
          [
            163,
            "CDISCPILOT01",
            "FT",
            "CDISC001",
            163,
            "AVL0210",
            "AVL02-List A Word 10",
            "AVLT-REY",
            "FORM 1",
            "RECALLED",
            "RECALLED",
            null,
            "",
            2,
            8,
            "WEEK 8",
            "TREATMENT",
            "2013-01-23T12:05",
            55,
            "",
            null,
            "",
            ""
          ],
          [
            164,
            "CDISCPILOT01",
            "FT",
            "CDISC001",
            164,
            "AVL0211",
            "AVL02-List A Word 11",
            "AVLT-REY",
            "FORM 1",
            "RECALLED",
            "RECALLED",
            null,
            "",
            2,
            8,
            "WEEK 8",
            "TREATMENT",
            "2013-01-23T12:05",
            55,
            "",
            null,
            "",
            ""
          ],
          [
            165,
            "CDISCPILOT01",
            "FT",
            "CDISC001",
            165,
            "AVL0212",
            "AVL02-List A Word 12",
            "AVLT-REY",
            "FORM 1",
            "NOT RECALLED",
            "NOT RECALLED",
            null,
            "",
            2,
            8,
            "WEEK 8",
            "TREATMENT",
            "2013-01-23T12:05",
            55,
            "",
            null,
            "",
            ""
          ],
          [
            166,
            "CDISCPILOT01",
            "FT",
            "CDISC001",
            166,
            "AVL0213",
            "AVL02-List A Word 13",
            "AVLT-REY",
            "FORM 1",
            "NOT RECALLED",
            "NOT RECALLED",
            null,
            "",
            2,
            8,
            "WEEK 8",
            "TREATMENT",
            "2013-01-23T12:05",
            55,
            "",
            null,
            "",
            ""
          ],
          [
            167,
            "CDISCPILOT01",
            "FT",
            "CDISC001",
            167,
            "AVL0214",
            "AVL02-List A Word 14",
            "AVLT-REY",
            "FORM 1",
            "NOT RECALLED",
            "NOT RECALLED",
            null,
            "",
            2,
            8,
            "WEEK 8",
            "TREATMENT",
            "2013-01-23T12:05",
            55,
            "",
            null,
            "",
            ""
          ],
          [
            168,
            "CDISCPILOT01",
            "FT",
            "CDISC001",
            168,
            "AVL0215",
            "AVL02-List A Word 15",
            "AVLT-REY",
            "FORM 1",
            "NOT RECALLED",
            "NOT RECALLED",
            null,
            "",
            2,
            8,
            "WEEK 8",
            "TREATMENT",
            "2013-01-23T12:05",
            55,
            "",
            null,
            "",
            ""
          ],
          [
            169,
            "CDISCPILOT01",
            "FT",
            "CDISC001",
            169,
            "AVL0216",
            "AVL02-List A Total",
            "AVLT-REY",
            "FORM 1",
            "6",
            "6",
            6,
            "",
            2,
            8,
            "WEEK 8",
            "TREATMENT",
            "2013-01-23T12:05",
            55,
            "",
            null,
            "",
            ""
          ],
          [
            170,
            "CDISCPILOT01",
            "FT",
            "CDISC001",
            170,
            "AVL0217",
            "AVL02-List A Intrusions",
            "AVLT-REY",
            "FORM 1",
            "0",
            "0",
            0,
            "",
            2,
            8,
            "WEEK 8",
            "TREATMENT",
            "2013-01-23T12:05",
            55,
            "",
            null,
            "",
            ""
          ],
          [
            171,
            "CDISCPILOT01",
            "FT",
            "CDISC001",
            171,
            "AVL0201",
            "AVL02-List A Word 1",
            "AVLT-REY",
            "FORM 1",
            "RECALLED",
            "RECALLED",
            null,
            "",
            3,
            8,
            "WEEK 8",
            "TREATMENT",
            "2013-01-23T12:10",
            55,
            "",
            null,
            "",
            ""
          ],
          [
            172,
            "CDISCPILOT01",
            "FT",
            "CDISC001",
            172,
            "AVL0202",
            "AVL02-List A Word 2",
            "AVLT-REY",
            "FORM 1",
            "NOT RECALLED",
            "NOT RECALLED",
            null,
            "",
            3,
            8,
            "WEEK 8",
            "TREATMENT",
            "2013-01-23T12:10",
            55,
            "",
            null,
            "",
            ""
          ],
          [
            173,
            "CDISCPILOT01",
            "FT",
            "CDISC001",
            173,
            "AVL0203",
            "AVL02-List A Word 3",
            "AVLT-REY",
            "FORM 1",
            "RECALLED",
            "RECALLED",
            null,
            "",
            3,
            8,
            "WEEK 8",
            "TREATMENT",
            "2013-01-23T12:10",
            55,
            "",
            null,
            "",
            ""
          ],
          [
            174,
            "CDISCPILOT01",
            "FT",
            "CDISC001",
            174,
            "AVL0204",
            "AVL02-List A Word 4",
            "AVLT-REY",
            "FORM 1",
            "RECALLED",
            "RECALLED",
            null,
            "",
            3,
            8,
            "WEEK 8",
            "TREATMENT",
            "2013-01-23T12:10",
            55,
            "",
            null,
            "",
            ""
          ],
          [
            175,
            "CDISCPILOT01",
            "FT",
            "CDISC001",
            175,
            "AVL0205",
            "AVL02-List A Word 5",
            "AVLT-REY",
            "FORM 1",
            "RECALLED",
            "RECALLED",
            null,
            "",
            3,
            8,
            "WEEK 8",
            "TREATMENT",
            "2013-01-23T12:10",
            55,
            "",
            null,
            "",
            ""
          ],
          [
            176,
            "CDISCPILOT01",
            "FT",
            "CDISC001",
            176,
            "AVL0206",
            "AVL02-List A Word 6",
            "AVLT-REY",
            "FORM 1",
            "RECALLED",
            "RECALLED",
            null,
            "",
            3,
            8,
            "WEEK 8",
            "TREATMENT",
            "2013-01-23T12:10",
            55,
            "",
            null,
            "",
            ""
          ],
          [
            177,
            "CDISCPILOT01",
            "FT",
            "CDISC001",
            177,
            "AVL0207",
            "AVL02-List A Word 7",
            "AVLT-REY",
            "FORM 1",
            "RECALLED",
            "RECALLED",
            null,
            "",
            3,
            8,
            "WEEK 8",
            "TREATMENT",
            "2013-01-23T12:10",
            55,
            "",
            null,
            "",
            ""
          ],
          [
            178,
            "CDISCPILOT01",
            "FT",
            "CDISC001",
            178,
            "AVL0208",
            "AVL02-List A Word 8",
            "AVLT-REY",
            "FORM 1",
            "NOT RECALLED",
            "NOT RECALLED",
            null,
            "",
            3,
            8,
            "WEEK 8",
            "TREATMENT",
            "2013-01-23T12:10",
            55,
            "",
            null,
            "",
            ""
          ],
          [
            179,
            "CDISCPILOT01",
            "FT",
            "CDISC001",
            179,
            "AVL0209",
            "AVL02-List A Word 9",
            "AVLT-REY",
            "FORM 1",
            "NOT RECALLED",
            "NOT RECALLED",
            null,
            "",
            3,
            8,
            "WEEK 8",
            "TREATMENT",
            "2013-01-23T12:10",
            55,
            "",
            null,
            "",
            ""
          ],
          [
            180,
            "CDISCPILOT01",
            "FT",
            "CDISC001",
            180,
            "AVL0210",
            "AVL02-List A Word 10",
            "AVLT-REY",
            "FORM 1",
            "RECALLED",
            "RECALLED",
            null,
            "",
            3,
            8,
            "WEEK 8",
            "TREATMENT",
            "2013-01-23T12:10",
            55,
            "",
            null,
            "",
            ""
          ],
          [
            181,
            "CDISCPILOT01",
            "FT",
            "CDISC001",
            181,
            "AVL0211",
            "AVL02-List A Word 11",
            "AVLT-REY",
            "FORM 1",
            "RECALLED",
            "RECALLED",
            null,
            "",
            3,
            8,
            "WEEK 8",
            "TREATMENT",
            "2013-01-23T12:10",
            55,
            "",
            null,
            "",
            ""
          ],
          [
            182,
            "CDISCPILOT01",
            "FT",
            "CDISC001",
            182,
            "AVL0212",
            "AVL02-List A Word 12",
            "AVLT-REY",
            "FORM 1",
            "NOT RECALLED",
            "NOT RECALLED",
            null,
            "",
            3,
            8,
            "WEEK 8",
            "TREATMENT",
            "2013-01-23T12:10",
            55,
            "",
            null,
            "",
            ""
          ],
          [
            183,
            "CDISCPILOT01",
            "FT",
            "CDISC001",
            183,
            "AVL0213",
            "AVL02-List A Word 13",
            "AVLT-REY",
            "FORM 1",
            "NOT RECALLED",
            "NOT RECALLED",
            null,
            "",
            3,
            8,
            "WEEK 8",
            "TREATMENT",
            "2013-01-23T12:10",
            55,
            "",
            null,
            "",
            ""
          ],
          [
            184,
            "CDISCPILOT01",
            "FT",
            "CDISC001",
            184,
            "AVL0214",
            "AVL02-List A Word 14",
            "AVLT-REY",
            "FORM 1",
            "NOT RECALLED",
            "NOT RECALLED",
            null,
            "",
            3,
            8,
            "WEEK 8",
            "TREATMENT",
            "2013-01-23T12:10",
            55,
            "",
            null,
            "",
            ""
          ],
          [
            185,
            "CDISCPILOT01",
            "FT",
            "CDISC001",
            185,
            "AVL0215",
            "AVL02-List A Word 15",
            "AVLT-REY",
            "FORM 1",
            "NOT RECALLED",
            "NOT RECALLED",
            null,
            "",
            3,
            8,
            "WEEK 8",
            "TREATMENT",
            "2013-01-23T12:10",
            55,
            "",
            null,
            "",
            ""
          ],
          [
            186,
            "CDISCPILOT01",
            "FT",
            "CDISC001",
            186,
            "AVL0216",
            "AVL02-List A Total",
            "AVLT-REY",
            "FORM 1",
            "8",
            "8",
            8,
            "",
            3,
            8,
            "WEEK 8",
            "TREATMENT",
            "2013-01-23T12:10",
            55,
            "",
            null,
            "",
            ""
          ],
          [
            187,
            "CDISCPILOT01",
            "FT",
            "CDISC001",
            187,
            "AVL0217",
            "AVL02-List A Intrusions",
            "AVLT-REY",
            "FORM 1",
            "0",
            "0",
            0,
            "",
            3,
            8,
            "WEEK 8",
            "TREATMENT",
            "2013-01-23T12:10",
            55,
            "",
            null,
            "",
            ""
          ],
          [
            188,
            "CDISCPILOT01",
            "FT",
            "CDISC001",
            188,
            "AVL0201",
            "AVL02-List A Word 1",
            "AVLT-REY",
            "FORM 1",
            "RECALLED",
            "RECALLED",
            null,
            "",
            4,
            8,
            "WEEK 8",
            "TREATMENT",
            "2013-01-23T12:15",
            55,
            "",
            null,
            "",
            ""
          ],
          [
            189,
            "CDISCPILOT01",
            "FT",
            "CDISC001",
            189,
            "AVL0202",
            "AVL02-List A Word 2",
            "AVLT-REY",
            "FORM 1",
            "NOT RECALLED",
            "NOT RECALLED",
            null,
            "",
            4,
            8,
            "WEEK 8",
            "TREATMENT",
            "2013-01-23T12:15",
            55,
            "",
            null,
            "",
            ""
          ],
          [
            190,
            "CDISCPILOT01",
            "FT",
            "CDISC001",
            190,
            "AVL0203",
            "AVL02-List A Word 3",
            "AVLT-REY",
            "FORM 1",
            "RECALLED",
            "RECALLED",
            null,
            "",
            4,
            8,
            "WEEK 8",
            "TREATMENT",
            "2013-01-23T12:15",
            55,
            "",
            null,
            "",
            ""
          ],
          [
            191,
            "CDISCPILOT01",
            "FT",
            "CDISC001",
            191,
            "AVL0204",
            "AVL02-List A Word 4",
            "AVLT-REY",
            "FORM 1",
            "RECALLED",
            "RECALLED",
            null,
            "",
            4,
            8,
            "WEEK 8",
            "TREATMENT",
            "2013-01-23T12:15",
            55,
            "",
            null,
            "",
            ""
          ],
          [
            192,
            "CDISCPILOT01",
            "FT",
            "CDISC001",
            192,
            "AVL0205",
            "AVL02-List A Word 5",
            "AVLT-REY",
            "FORM 1",
            "RECALLED",
            "RECALLED",
            null,
            "",
            4,
            8,
            "WEEK 8",
            "TREATMENT",
            "2013-01-23T12:15",
            55,
            "",
            null,
            "",
            ""
          ],
          [
            193,
            "CDISCPILOT01",
            "FT",
            "CDISC001",
            193,
            "AVL0206",
            "AVL02-List A Word 6",
            "AVLT-REY",
            "FORM 1",
            "RECALLED",
            "RECALLED",
            null,
            "",
            4,
            8,
            "WEEK 8",
            "TREATMENT",
            "2013-01-23T12:15",
            55,
            "",
            null,
            "",
            ""
          ],
          [
            194,
            "CDISCPILOT01",
            "FT",
            "CDISC001",
            194,
            "AVL0207",
            "AVL02-List A Word 7",
            "AVLT-REY",
            "FORM 1",
            "RECALLED",
            "RECALLED",
            null,
            "",
            4,
            8,
            "WEEK 8",
            "TREATMENT",
            "2013-01-23T12:15",
            55,
            "",
            null,
            "",
            ""
          ],
          [
            195,
            "CDISCPILOT01",
            "FT",
            "CDISC001",
            195,
            "AVL0208",
            "AVL02-List A Word 8",
            "AVLT-REY",
            "FORM 1",
            "NOT RECALLED",
            "NOT RECALLED",
            null,
            "",
            4,
            8,
            "WEEK 8",
            "TREATMENT",
            "2013-01-23T12:15",
            55,
            "",
            null,
            "",
            ""
          ],
          [
            196,
            "CDISCPILOT01",
            "FT",
            "CDISC001",
            196,
            "AVL0209",
            "AVL02-List A Word 9",
            "AVLT-REY",
            "FORM 1",
            "NOT RECALLED",
            "NOT RECALLED",
            null,
            "",
            4,
            8,
            "WEEK 8",
            "TREATMENT",
            "2013-01-23T12:15",
            55,
            "",
            null,
            "",
            ""
          ],
          [
            197,
            "CDISCPILOT01",
            "FT",
            "CDISC001",
            197,
            "AVL0210",
            "AVL02-List A Word 10",
            "AVLT-REY",
            "FORM 1",
            "RECALLED",
            "RECALLED",
            null,
            "",
            4,
            8,
            "WEEK 8",
            "TREATMENT",
            "2013-01-23T12:15",
            55,
            "",
            null,
            "",
            ""
          ],
          [
            198,
            "CDISCPILOT01",
            "FT",
            "CDISC001",
            198,
            "AVL0211",
            "AVL02-List A Word 11",
            "AVLT-REY",
            "FORM 1",
            "RECALLED",
            "RECALLED",
            null,
            "",
            4,
            8,
            "WEEK 8",
            "TREATMENT",
            "2013-01-23T12:15",
            55,
            "",
            null,
            "",
            ""
          ],
          [
            199,
            "CDISCPILOT01",
            "FT",
            "CDISC001",
            199,
            "AVL0212",
            "AVL02-List A Word 12",
            "AVLT-REY",
            "FORM 1",
            "RECALLED",
            "RECALLED",
            null,
            "",
            4,
            8,
            "WEEK 8",
            "TREATMENT",
            "2013-01-23T12:15",
            55,
            "",
            null,
            "",
            ""
          ],
          [
            200,
            "CDISCPILOT01",
            "FT",
            "CDISC001",
            200,
            "AVL0213",
            "AVL02-List A Word 13",
            "AVLT-REY",
            "FORM 1",
            "NOT RECALLED",
            "NOT RECALLED",
            null,
            "",
            4,
            8,
            "WEEK 8",
            "TREATMENT",
            "2013-01-23T12:15",
            55,
            "",
            null,
            "",
            ""
          ],
          [
            201,
            "CDISCPILOT01",
            "FT",
            "CDISC001",
            201,
            "AVL0214",
            "AVL02-List A Word 14",
            "AVLT-REY",
            "FORM 1",
            "NOT RECALLED",
            "NOT RECALLED",
            null,
            "",
            4,
            8,
            "WEEK 8",
            "TREATMENT",
            "2013-01-23T12:15",
            55,
            "",
            null,
            "",
            ""
          ],
          [
            202,
            "CDISCPILOT01",
            "FT",
            "CDISC001",
            202,
            "AVL0215",
            "AVL02-List A Word 15",
            "AVLT-REY",
            "FORM 1",
            "NOT RECALLED",
            "NOT RECALLED",
            null,
            "",
            4,
            8,
            "WEEK 8",
            "TREATMENT",
            "2013-01-23T12:15",
            55,
            "",
            null,
            "",
            ""
          ],
          [
            203,
            "CDISCPILOT01",
            "FT",
            "CDISC001",
            203,
            "AVL0216",
            "AVL02-List A Total",
            "AVLT-REY",
            "FORM 1",
            "9",
            "9",
            9,
            "",
            4,
            8,
            "WEEK 8",
            "TREATMENT",
            "2013-01-23T12:15",
            55,
            "",
            null,
            "",
            ""
          ],
          [
            204,
            "CDISCPILOT01",
            "FT",
            "CDISC001",
            204,
            "AVL0217",
            "AVL02-List A Intrusions",
            "AVLT-REY",
            "FORM 1",
            "0",
            "0",
            0,
            "",
            4,
            8,
            "WEEK 8",
            "TREATMENT",
            "2013-01-23T12:15",
            55,
            "",
            null,
            "",
            ""
          ],
          [
            205,
            "CDISCPILOT01",
            "FT",
            "CDISC001",
            205,
            "AVL0201",
            "AVL02-List A Word 1",
            "AVLT-REY",
            "FORM 1",
            "RECALLED",
            "RECALLED",
            null,
            "",
            5,
            8,
            "WEEK 8",
            "TREATMENT",
            "2013-01-23T12:20",
            55,
            "",
            null,
            "",
            ""
          ],
          [
            206,
            "CDISCPILOT01",
            "FT",
            "CDISC001",
            206,
            "AVL0202",
            "AVL02-List A Word 2",
            "AVLT-REY",
            "FORM 1",
            "NOT RECALLED",
            "NOT RECALLED",
            null,
            "",
            5,
            8,
            "WEEK 8",
            "TREATMENT",
            "2013-01-23T12:20",
            55,
            "",
            null,
            "",
            ""
          ],
          [
            207,
            "CDISCPILOT01",
            "FT",
            "CDISC001",
            207,
            "AVL0203",
            "AVL02-List A Word 3",
            "AVLT-REY",
            "FORM 1",
            "RECALLED",
            "RECALLED",
            null,
            "",
            5,
            8,
            "WEEK 8",
            "TREATMENT",
            "2013-01-23T12:20",
            55,
            "",
            null,
            "",
            ""
          ],
          [
            208,
            "CDISCPILOT01",
            "FT",
            "CDISC001",
            208,
            "AVL0204",
            "AVL02-List A Word 4",
            "AVLT-REY",
            "FORM 1",
            "RECALLED",
            "RECALLED",
            null,
            "",
            5,
            8,
            "WEEK 8",
            "TREATMENT",
            "2013-01-23T12:20",
            55,
            "",
            null,
            "",
            ""
          ],
          [
            209,
            "CDISCPILOT01",
            "FT",
            "CDISC001",
            209,
            "AVL0205",
            "AVL02-List A Word 5",
            "AVLT-REY",
            "FORM 1",
            "RECALLED",
            "RECALLED",
            null,
            "",
            5,
            8,
            "WEEK 8",
            "TREATMENT",
            "2013-01-23T12:20",
            55,
            "",
            null,
            "",
            ""
          ],
          [
            210,
            "CDISCPILOT01",
            "FT",
            "CDISC001",
            210,
            "AVL0206",
            "AVL02-List A Word 6",
            "AVLT-REY",
            "FORM 1",
            "RECALLED",
            "RECALLED",
            null,
            "",
            5,
            8,
            "WEEK 8",
            "TREATMENT",
            "2013-01-23T12:20",
            55,
            "",
            null,
            "",
            ""
          ],
          [
            211,
            "CDISCPILOT01",
            "FT",
            "CDISC001",
            211,
            "AVL0207",
            "AVL02-List A Word 7",
            "AVLT-REY",
            "FORM 1",
            "RECALLED",
            "RECALLED",
            null,
            "",
            5,
            8,
            "WEEK 8",
            "TREATMENT",
            "2013-01-23T12:20",
            55,
            "",
            null,
            "",
            ""
          ],
          [
            212,
            "CDISCPILOT01",
            "FT",
            "CDISC001",
            212,
            "AVL0208",
            "AVL02-List A Word 8",
            "AVLT-REY",
            "FORM 1",
            "NOT RECALLED",
            "NOT RECALLED",
            null,
            "",
            5,
            8,
            "WEEK 8",
            "TREATMENT",
            "2013-01-23T12:20",
            55,
            "",
            null,
            "",
            ""
          ],
          [
            213,
            "CDISCPILOT01",
            "FT",
            "CDISC001",
            213,
            "AVL0209",
            "AVL02-List A Word 9",
            "AVLT-REY",
            "FORM 1",
            "NOT RECALLED",
            "NOT RECALLED",
            null,
            "",
            5,
            8,
            "WEEK 8",
            "TREATMENT",
            "2013-01-23T12:20",
            55,
            "",
            null,
            "",
            ""
          ],
          [
            214,
            "CDISCPILOT01",
            "FT",
            "CDISC001",
            214,
            "AVL0210",
            "AVL02-List A Word 10",
            "AVLT-REY",
            "FORM 1",
            "RECALLED",
            "RECALLED",
            null,
            "",
            5,
            8,
            "WEEK 8",
            "TREATMENT",
            "2013-01-23T12:20",
            55,
            "",
            null,
            "",
            ""
          ],
          [
            215,
            "CDISCPILOT01",
            "FT",
            "CDISC001",
            215,
            "AVL0211",
            "AVL02-List A Word 11",
            "AVLT-REY",
            "FORM 1",
            "RECALLED",
            "RECALLED",
            null,
            "",
            5,
            8,
            "WEEK 8",
            "TREATMENT",
            "2013-01-23T12:20",
            55,
            "",
            null,
            "",
            ""
          ],
          [
            216,
            "CDISCPILOT01",
            "FT",
            "CDISC001",
            216,
            "AVL0212",
            "AVL02-List A Word 12",
            "AVLT-REY",
            "FORM 1",
            "RECALLED",
            "RECALLED",
            null,
            "",
            5,
            8,
            "WEEK 8",
            "TREATMENT",
            "2013-01-23T12:20",
            55,
            "",
            null,
            "",
            ""
          ],
          [
            217,
            "CDISCPILOT01",
            "FT",
            "CDISC001",
            217,
            "AVL0213",
            "AVL02-List A Word 13",
            "AVLT-REY",
            "FORM 1",
            "NOT RECALLED",
            "NOT RECALLED",
            null,
            "",
            5,
            8,
            "WEEK 8",
            "TREATMENT",
            "2013-01-23T12:20",
            55,
            "",
            null,
            "",
            ""
          ],
          [
            218,
            "CDISCPILOT01",
            "FT",
            "CDISC001",
            218,
            "AVL0214",
            "AVL02-List A Word 14",
            "AVLT-REY",
            "FORM 1",
            "NOT RECALLED",
            "NOT RECALLED",
            null,
            "",
            5,
            8,
            "WEEK 8",
            "TREATMENT",
            "2013-01-23T12:20",
            55,
            "",
            null,
            "",
            ""
          ],
          [
            219,
            "CDISCPILOT01",
            "FT",
            "CDISC001",
            219,
            "AVL0215",
            "AVL02-List A Word 15",
            "AVLT-REY",
            "FORM 1",
            "NOT RECALLED",
            "NOT RECALLED",
            null,
            "",
            5,
            8,
            "WEEK 8",
            "TREATMENT",
            "2013-01-23T12:20",
            55,
            "",
            null,
            "",
            ""
          ],
          [
            220,
            "CDISCPILOT01",
            "FT",
            "CDISC001",
            220,
            "AVL0216",
            "AVL02-List A Total",
            "AVLT-REY",
            "FORM 1",
            "9",
            "9",
            9,
            "",
            5,
            8,
            "WEEK 8",
            "TREATMENT",
            "2013-01-23T12:20",
            55,
            "",
            null,
            "",
            ""
          ],
          [
            221,
            "CDISCPILOT01",
            "FT",
            "CDISC001",
            221,
            "AVL0217",
            "AVL02-List A Intrusions",
            "AVLT-REY",
            "FORM 1",
            "0",
            "0",
            0,
            "",
            5,
            8,
            "WEEK 8",
            "TREATMENT",
            "2013-01-23T12:20",
            55,
            "",
            null,
            "",
            ""
          ],
          [
            222,
            "CDISCPILOT01",
            "FT",
            "CDISC001",
            222,
            "AVL0218",
            "AVL02-List B Word 1",
            "AVLT-REY",
            "FORM 1",
            "RECALLED",
            "RECALLED",
            null,
            "",
            null,
            8,
            "WEEK 8",
            "TREATMENT",
            "2013-01-23T12:25",
            55,
            "",
            null,
            "",
            ""
          ],
          [
            223,
            "CDISCPILOT01",
            "FT",
            "CDISC001",
            223,
            "AVL0219",
            "AVL02-List B Word 2",
            "AVLT-REY",
            "FORM 1",
            "NOT RECALLED",
            "NOT RECALLED",
            null,
            "",
            null,
            8,
            "WEEK 8",
            "TREATMENT",
            "2013-01-23T12:25",
            55,
            "",
            null,
            "",
            ""
          ],
          [
            224,
            "CDISCPILOT01",
            "FT",
            "CDISC001",
            224,
            "AVL0220",
            "AVL02-List B Word 3",
            "AVLT-REY",
            "FORM 1",
            "RECALLED",
            "RECALLED",
            null,
            "",
            null,
            8,
            "WEEK 8",
            "TREATMENT",
            "2013-01-23T12:25",
            55,
            "",
            null,
            "",
            ""
          ],
          [
            225,
            "CDISCPILOT01",
            "FT",
            "CDISC001",
            225,
            "AVL0221",
            "AVL02-List B Word 4",
            "AVLT-REY",
            "FORM 1",
            "RECALLED",
            "RECALLED",
            null,
            "",
            null,
            8,
            "WEEK 8",
            "TREATMENT",
            "2013-01-23T12:25",
            55,
            "",
            null,
            "",
            ""
          ],
          [
            226,
            "CDISCPILOT01",
            "FT",
            "CDISC001",
            226,
            "AVL0222",
            "AVL02-List B Word 5",
            "AVLT-REY",
            "FORM 1",
            "RECALLED",
            "RECALLED",
            null,
            "",
            null,
            8,
            "WEEK 8",
            "TREATMENT",
            "2013-01-23T12:25",
            55,
            "",
            null,
            "",
            ""
          ],
          [
            227,
            "CDISCPILOT01",
            "FT",
            "CDISC001",
            227,
            "AVL0223",
            "AVL02-List B Word 6",
            "AVLT-REY",
            "FORM 1",
            "RECALLED",
            "RECALLED",
            null,
            "",
            null,
            8,
            "WEEK 8",
            "TREATMENT",
            "2013-01-23T12:25",
            55,
            "",
            null,
            "",
            ""
          ],
          [
            228,
            "CDISCPILOT01",
            "FT",
            "CDISC001",
            228,
            "AVL0224",
            "AVL02-List B Word 7",
            "AVLT-REY",
            "FORM 1",
            "RECALLED",
            "RECALLED",
            null,
            "",
            null,
            8,
            "WEEK 8",
            "TREATMENT",
            "2013-01-23T12:25",
            55,
            "",
            null,
            "",
            ""
          ],
          [
            229,
            "CDISCPILOT01",
            "FT",
            "CDISC001",
            229,
            "AVL0225",
            "AVL02-List B Word 8",
            "AVLT-REY",
            "FORM 1",
            "RECALLED",
            "RECALLED",
            null,
            "",
            null,
            8,
            "WEEK 8",
            "TREATMENT",
            "2013-01-23T12:25",
            55,
            "",
            null,
            "",
            ""
          ],
          [
            230,
            "CDISCPILOT01",
            "FT",
            "CDISC001",
            230,
            "AVL0226",
            "AVL02-List B Word 9",
            "AVLT-REY",
            "FORM 1",
            "RECALLED",
            "RECALLED",
            null,
            "",
            null,
            8,
            "WEEK 8",
            "TREATMENT",
            "2013-01-23T12:25",
            55,
            "",
            null,
            "",
            ""
          ],
          [
            231,
            "CDISCPILOT01",
            "FT",
            "CDISC001",
            231,
            "AVL0227",
            "AVL02-List B Word 10",
            "AVLT-REY",
            "FORM 1",
            "RECALLED",
            "RECALLED",
            null,
            "",
            null,
            8,
            "WEEK 8",
            "TREATMENT",
            "2013-01-23T12:25",
            55,
            "",
            null,
            "",
            ""
          ],
          [
            232,
            "CDISCPILOT01",
            "FT",
            "CDISC001",
            232,
            "AVL0228",
            "AVL02-List B Word 11",
            "AVLT-REY",
            "FORM 1",
            "RECALLED",
            "RECALLED",
            null,
            "",
            null,
            8,
            "WEEK 8",
            "TREATMENT",
            "2013-01-23T12:25",
            55,
            "",
            null,
            "",
            ""
          ],
          [
            233,
            "CDISCPILOT01",
            "FT",
            "CDISC001",
            233,
            "AVL0229",
            "AVL02-List B Word 12",
            "AVLT-REY",
            "FORM 1",
            "RECALLED",
            "RECALLED",
            null,
            "",
            null,
            8,
            "WEEK 8",
            "TREATMENT",
            "2013-01-23T12:25",
            55,
            "",
            null,
            "",
            ""
          ],
          [
            234,
            "CDISCPILOT01",
            "FT",
            "CDISC001",
            234,
            "AVL0230",
            "AVL02-List B Word 13",
            "AVLT-REY",
            "FORM 1",
            "NOT RECALLED",
            "NOT RECALLED",
            null,
            "",
            null,
            8,
            "WEEK 8",
            "TREATMENT",
            "2013-01-23T12:25",
            55,
            "",
            null,
            "",
            ""
          ],
          [
            235,
            "CDISCPILOT01",
            "FT",
            "CDISC001",
            235,
            "AVL0231",
            "AVL02-List B Word 14",
            "AVLT-REY",
            "FORM 1",
            "NOT RECALLED",
            "NOT RECALLED",
            null,
            "",
            null,
            8,
            "WEEK 8",
            "TREATMENT",
            "2013-01-23T12:25",
            55,
            "",
            null,
            "",
            ""
          ],
          [
            236,
            "CDISCPILOT01",
            "FT",
            "CDISC001",
            236,
            "AVL0232",
            "AVL02-List B Word 15",
            "AVLT-REY",
            "FORM 1",
            "NOT RECALLED",
            "NOT RECALLED",
            null,
            "",
            null,
            8,
            "WEEK 8",
            "TREATMENT",
            "2013-01-23T12:25",
            55,
            "",
            null,
            "",
            ""
          ],
          [
            237,
            "CDISCPILOT01",
            "FT",
            "CDISC001",
            237,
            "AVL0233",
            "AVL02- List B Total",
            "AVLT-REY",
            "FORM 1",
            "11",
            "11",
            11,
            "",
            null,
            8,
            "WEEK 8",
            "TREATMENT",
            "2013-01-23T12:25",
            55,
            "",
            null,
            "",
            ""
          ],
          [
            238,
            "CDISCPILOT01",
            "FT",
            "CDISC001",
            238,
            "AVL0234",
            "AVL02-List B Intrusions",
            "AVLT-REY",
            "FORM 1",
            "0",
            "0",
            0,
            "",
            null,
            8,
            "WEEK 8",
            "TREATMENT",
            "2013-01-23T12:25",
            55,
            "",
            null,
            "",
            ""
          ],
          [
            239,
            "CDISCPILOT01",
            "FT",
            "CDISC001",
            239,
            "AVL0201",
            "AVL02-List A Word 1",
            "AVLT-REY",
            "FORM 1",
            "RECALLED",
            "RECALLED",
            null,
            "",
            6,
            8,
            "WEEK 8",
            "TREATMENT",
            "2013-01-23T12:30",
            55,
            "",
            null,
            "",
            ""
          ],
          [
            240,
            "CDISCPILOT01",
            "FT",
            "CDISC001",
            240,
            "AVL0202",
            "AVL02-List A Word 2",
            "AVLT-REY",
            "FORM 1",
            "NOT RECALLED",
            "NOT RECALLED",
            null,
            "",
            6,
            8,
            "WEEK 8",
            "TREATMENT",
            "2013-01-23T12:30",
            55,
            "",
            null,
            "",
            ""
          ],
          [
            241,
            "CDISCPILOT01",
            "FT",
            "CDISC001",
            241,
            "AVL0203",
            "AVL02-List A Word 3",
            "AVLT-REY",
            "FORM 1",
            "RECALLED",
            "RECALLED",
            null,
            "",
            6,
            8,
            "WEEK 8",
            "TREATMENT",
            "2013-01-23T12:30",
            55,
            "",
            null,
            "",
            ""
          ],
          [
            242,
            "CDISCPILOT01",
            "FT",
            "CDISC001",
            242,
            "AVL0204",
            "AVL02-List A Word 4",
            "AVLT-REY",
            "FORM 1",
            "RECALLED",
            "RECALLED",
            null,
            "",
            6,
            8,
            "WEEK 8",
            "TREATMENT",
            "2013-01-23T12:30",
            55,
            "",
            null,
            "",
            ""
          ],
          [
            243,
            "CDISCPILOT01",
            "FT",
            "CDISC001",
            243,
            "AVL0205",
            "AVL02-List A Word 5",
            "AVLT-REY",
            "FORM 1",
            "RECALLED",
            "RECALLED",
            null,
            "",
            6,
            8,
            "WEEK 8",
            "TREATMENT",
            "2013-01-23T12:30",
            55,
            "",
            null,
            "",
            ""
          ],
          [
            244,
            "CDISCPILOT01",
            "FT",
            "CDISC001",
            244,
            "AVL0206",
            "AVL02-List A Word 6",
            "AVLT-REY",
            "FORM 1",
            "RECALLED",
            "RECALLED",
            null,
            "",
            6,
            8,
            "WEEK 8",
            "TREATMENT",
            "2013-01-23T12:30",
            55,
            "",
            null,
            "",
            ""
          ],
          [
            245,
            "CDISCPILOT01",
            "FT",
            "CDISC001",
            245,
            "AVL0207",
            "AVL02-List A Word 7",
            "AVLT-REY",
            "FORM 1",
            "RECALLED",
            "RECALLED",
            null,
            "",
            6,
            8,
            "WEEK 8",
            "TREATMENT",
            "2013-01-23T12:30",
            55,
            "",
            null,
            "",
            ""
          ],
          [
            246,
            "CDISCPILOT01",
            "FT",
            "CDISC001",
            246,
            "AVL0208",
            "AVL02-List A Word 8",
            "AVLT-REY",
            "FORM 1",
            "RECALLED",
            "RECALLED",
            null,
            "",
            6,
            8,
            "WEEK 8",
            "TREATMENT",
            "2013-01-23T12:30",
            55,
            "",
            null,
            "",
            ""
          ],
          [
            247,
            "CDISCPILOT01",
            "FT",
            "CDISC001",
            247,
            "AVL0209",
            "AVL02-List A Word 9",
            "AVLT-REY",
            "FORM 1",
            "RECALLED",
            "RECALLED",
            null,
            "",
            6,
            8,
            "WEEK 8",
            "TREATMENT",
            "2013-01-23T12:30",
            55,
            "",
            null,
            "",
            ""
          ],
          [
            248,
            "CDISCPILOT01",
            "FT",
            "CDISC001",
            248,
            "AVL0210",
            "AVL02-List A Word 10",
            "AVLT-REY",
            "FORM 1",
            "RECALLED",
            "RECALLED",
            null,
            "",
            6,
            8,
            "WEEK 8",
            "TREATMENT",
            "2013-01-23T12:30",
            55,
            "",
            null,
            "",
            ""
          ],
          [
            249,
            "CDISCPILOT01",
            "FT",
            "CDISC001",
            249,
            "AVL0211",
            "AVL02-List A Word 11",
            "AVLT-REY",
            "FORM 1",
            "RECALLED",
            "RECALLED",
            null,
            "",
            6,
            8,
            "WEEK 8",
            "TREATMENT",
            "2013-01-23T12:30",
            55,
            "",
            null,
            "",
            ""
          ],
          [
            250,
            "CDISCPILOT01",
            "FT",
            "CDISC001",
            250,
            "AVL0212",
            "AVL02-List A Word 12",
            "AVLT-REY",
            "FORM 1",
            "RECALLED",
            "RECALLED",
            null,
            "",
            6,
            8,
            "WEEK 8",
            "TREATMENT",
            "2013-01-23T12:30",
            55,
            "",
            null,
            "",
            ""
          ],
          [
            251,
            "CDISCPILOT01",
            "FT",
            "CDISC001",
            251,
            "AVL0213",
            "AVL02-List A Word 13",
            "AVLT-REY",
            "FORM 1",
            "NOT RECALLED",
            "NOT RECALLED",
            null,
            "",
            6,
            8,
            "WEEK 8",
            "TREATMENT",
            "2013-01-23T12:30",
            55,
            "",
            null,
            "",
            ""
          ],
          [
            252,
            "CDISCPILOT01",
            "FT",
            "CDISC001",
            252,
            "AVL0214",
            "AVL02-List A Word 14",
            "AVLT-REY",
            "FORM 1",
            "NOT RECALLED",
            "NOT RECALLED",
            null,
            "",
            6,
            8,
            "WEEK 8",
            "TREATMENT",
            "2013-01-23T12:30",
            55,
            "",
            null,
            "",
            ""
          ],
          [
            253,
            "CDISCPILOT01",
            "FT",
            "CDISC001",
            253,
            "AVL0215",
            "AVL02-List A Word 15",
            "AVLT-REY",
            "FORM 1",
            "NOT RECALLED",
            "NOT RECALLED",
            null,
            "",
            6,
            8,
            "WEEK 8",
            "TREATMENT",
            "2013-01-23T12:30",
            55,
            "",
            null,
            "",
            ""
          ],
          [
            254,
            "CDISCPILOT01",
            "FT",
            "CDISC001",
            254,
            "AVL0216",
            "AVL02-List A Total",
            "AVLT-REY",
            "FORM 1",
            "11",
            "11",
            11,
            "",
            6,
            8,
            "WEEK 8",
            "TREATMENT",
            "2013-01-23T12:30",
            55,
            "",
            null,
            "",
            ""
          ],
          [
            255,
            "CDISCPILOT01",
            "FT",
            "CDISC001",
            255,
            "AVL0217",
            "AVL02-List A Intrusions",
            "AVLT-REY",
            "FORM 1",
            "2",
            "2",
            2,
            "",
            6,
            8,
            "WEEK 8",
            "TREATMENT",
            "2013-01-23T12:30",
            55,
            "",
            null,
            "",
            ""
          ],
          [
            256,
            "CDISCPILOT01",
            "FT",
            "CDISC001",
            256,
            "AVL0201",
            "AVL02-List A Word 1",
            "AVLT-REY",
            "FORM 1",
            "RECALLED",
            "RECALLED",
            null,
            "",
            7,
            8,
            "WEEK 8",
            "TREATMENT",
            "2013-01-23T13:00",
            55,
            "30 MIN POST",
            1,
            "PT30M",
            "LIST A RECALL 6"
          ],
          [
            257,
            "CDISCPILOT01",
            "FT",
            "CDISC001",
            257,
            "AVL0202",
            "AVL02-List A Word 2",
            "AVLT-REY",
            "FORM 1",
            "NOT RECALLED",
            "NOT RECALLED",
            null,
            "",
            7,
            8,
            "WEEK 8",
            "TREATMENT",
            "2013-01-23T13:00",
            55,
            "30 MIN POST",
            1,
            "PT30M",
            "LIST A RECALL 6"
          ],
          [
            258,
            "CDISCPILOT01",
            "FT",
            "CDISC001",
            258,
            "AVL0203",
            "AVL02-List A Word 3",
            "AVLT-REY",
            "FORM 1",
            "RECALLED",
            "RECALLED",
            null,
            "",
            7,
            8,
            "WEEK 8",
            "TREATMENT",
            "2013-01-23T13:00",
            55,
            "30 MIN POST",
            1,
            "PT30M",
            "LIST A RECALL 6"
          ],
          [
            259,
            "CDISCPILOT01",
            "FT",
            "CDISC001",
            259,
            "AVL0204",
            "AVL02-List A Word 4",
            "AVLT-REY",
            "FORM 1",
            "RECALLED",
            "RECALLED",
            null,
            "",
            7,
            8,
            "WEEK 8",
            "TREATMENT",
            "2013-01-23T13:00",
            55,
            "30 MIN POST",
            1,
            "PT30M",
            "LIST A RECALL 6"
          ],
          [
            260,
            "CDISCPILOT01",
            "FT",
            "CDISC001",
            260,
            "AVL0205",
            "AVL02-List A Word 5",
            "AVLT-REY",
            "FORM 1",
            "NOT RECALLED",
            "NOT RECALLED",
            null,
            "",
            7,
            8,
            "WEEK 8",
            "TREATMENT",
            "2013-01-23T13:00",
            55,
            "30 MIN POST",
            1,
            "PT30M",
            "LIST A RECALL 6"
          ],
          [
            261,
            "CDISCPILOT01",
            "FT",
            "CDISC001",
            261,
            "AVL0206",
            "AVL02-List A Word 6",
            "AVLT-REY",
            "FORM 1",
            "RECALLED",
            "RECALLED",
            null,
            "",
            7,
            8,
            "WEEK 8",
            "TREATMENT",
            "2013-01-23T13:00",
            55,
            "30 MIN POST",
            1,
            "PT30M",
            "LIST A RECALL 6"
          ],
          [
            262,
            "CDISCPILOT01",
            "FT",
            "CDISC001",
            262,
            "AVL0207",
            "AVL02-List A Word 7",
            "AVLT-REY",
            "FORM 1",
            "NOT RECALLED",
            "NOT RECALLED",
            null,
            "",
            7,
            8,
            "WEEK 8",
            "TREATMENT",
            "2013-01-23T13:00",
            55,
            "30 MIN POST",
            1,
            "PT30M",
            "LIST A RECALL 6"
          ],
          [
            263,
            "CDISCPILOT01",
            "FT",
            "CDISC001",
            263,
            "AVL0208",
            "AVL02-List A Word 8",
            "AVLT-REY",
            "FORM 1",
            "NOT RECALLED",
            "NOT RECALLED",
            null,
            "",
            7,
            8,
            "WEEK 8",
            "TREATMENT",
            "2013-01-23T13:00",
            55,
            "30 MIN POST",
            1,
            "PT30M",
            "LIST A RECALL 6"
          ],
          [
            264,
            "CDISCPILOT01",
            "FT",
            "CDISC001",
            264,
            "AVL0209",
            "AVL02-List A Word 9",
            "AVLT-REY",
            "FORM 1",
            "RECALLED",
            "RECALLED",
            null,
            "",
            7,
            8,
            "WEEK 8",
            "TREATMENT",
            "2013-01-23T13:00",
            55,
            "30 MIN POST",
            1,
            "PT30M",
            "LIST A RECALL 6"
          ],
          [
            265,
            "CDISCPILOT01",
            "FT",
            "CDISC001",
            265,
            "AVL0210",
            "AVL02-List A Word 10",
            "AVLT-REY",
            "FORM 1",
            "RECALLED",
            "RECALLED",
            null,
            "",
            7,
            8,
            "WEEK 8",
            "TREATMENT",
            "2013-01-23T13:00",
            55,
            "30 MIN POST",
            1,
            "PT30M",
            "LIST A RECALL 6"
          ],
          [
            266,
            "CDISCPILOT01",
            "FT",
            "CDISC001",
            266,
            "AVL0211",
            "AVL02-List A Word 11",
            "AVLT-REY",
            "FORM 1",
            "RECALLED",
            "RECALLED",
            null,
            "",
            7,
            8,
            "WEEK 8",
            "TREATMENT",
            "2013-01-23T13:00",
            55,
            "30 MIN POST",
            1,
            "PT30M",
            "LIST A RECALL 6"
          ],
          [
            267,
            "CDISCPILOT01",
            "FT",
            "CDISC001",
            267,
            "AVL0212",
            "AVL02-List A Word 12",
            "AVLT-REY",
            "FORM 1",
            "RECALLED",
            "RECALLED",
            null,
            "",
            7,
            8,
            "WEEK 8",
            "TREATMENT",
            "2013-01-23T13:00",
            55,
            "30 MIN POST",
            1,
            "PT30M",
            "LIST A RECALL 6"
          ],
          [
            268,
            "CDISCPILOT01",
            "FT",
            "CDISC001",
            268,
            "AVL0213",
            "AVL02-List A Word 13",
            "AVLT-REY",
            "FORM 1",
            "NOT RECALLED",
            "NOT RECALLED",
            null,
            "",
            7,
            8,
            "WEEK 8",
            "TREATMENT",
            "2013-01-23T13:00",
            55,
            "30 MIN POST",
            1,
            "PT30M",
            "LIST A RECALL 6"
          ],
          [
            269,
            "CDISCPILOT01",
            "FT",
            "CDISC001",
            269,
            "AVL0214",
            "AVL02-List A Word 14",
            "AVLT-REY",
            "FORM 1",
            "NOT RECALLED",
            "NOT RECALLED",
            null,
            "",
            7,
            8,
            "WEEK 8",
            "TREATMENT",
            "2013-01-23T13:00",
            55,
            "30 MIN POST",
            1,
            "PT30M",
            "LIST A RECALL 6"
          ],
          [
            270,
            "CDISCPILOT01",
            "FT",
            "CDISC001",
            270,
            "AVL0215",
            "AVL02-List A Word 15",
            "AVLT-REY",
            "FORM 1",
            "NOT RECALLED",
            "NOT RECALLED",
            null,
            "",
            7,
            8,
            "WEEK 8",
            "TREATMENT",
            "2013-01-23T13:00",
            55,
            "30 MIN POST",
            1,
            "PT30M",
            "LIST A RECALL 6"
          ],
          [
            271,
            "CDISCPILOT01",
            "FT",
            "CDISC001",
            271,
            "AVL0216",
            "AVL02-List A Total",
            "AVLT-REY",
            "FORM 1",
            "8",
            "8",
            8,
            "",
            7,
            8,
            "WEEK 8",
            "TREATMENT",
            "2013-01-23T13:00",
            55,
            "30 MIN POST",
            1,
            "PT30M",
            "LIST A RECALL 6"
          ],
          [
            272,
            "CDISCPILOT01",
            "FT",
            "CDISC001",
            272,
            "AVL0217",
            "AVL02-List A Intrusions",
            "AVLT-REY",
            "FORM 1",
            "1",
            "1",
            1,
            "",
            7,
            8,
            "WEEK 8",
            "TREATMENT",
            "2013-01-23T13:00",
            55,
            "30 MIN POST",
            1,
            "PT30M",
            "LIST A RECALL 6"
          ],
          [
            273,
            "CDISCPILOT01",
            "FT",
            "CDISC001",
            273,
            "AVL0201",
            "AVL02-List A Word 1",
            "AVLT-REY",
            "FORM 1",
            "RECALLED",
            "RECALLED",
            null,
            "",
            1,
            201,
            "EARLY DISCONTINUATION RETRIEVAL",
            "TREATMENT",
            "2013-05-20T12:00",
            172,
            "",
            null,
            "",
            ""
          ],
          [
            274,
            "CDISCPILOT01",
            "FT",
            "CDISC001",
            274,
            "AVL0202",
            "AVL02-List A Word 2",
            "AVLT-REY",
            "FORM 1",
            "NOT RECALLED",
            "NOT RECALLED",
            null,
            "",
            1,
            201,
            "EARLY DISCONTINUATION RETRIEVAL",
            "TREATMENT",
            "2013-05-20T12:00",
            172,
            "",
            null,
            "",
            ""
          ],
          [
            275,
            "CDISCPILOT01",
            "FT",
            "CDISC001",
            275,
            "AVL0203",
            "AVL02-List A Word 3",
            "AVLT-REY",
            "FORM 1",
            "RECALLED",
            "RECALLED",
            null,
            "",
            1,
            201,
            "EARLY DISCONTINUATION RETRIEVAL",
            "TREATMENT",
            "2013-05-20T12:00",
            172,
            "",
            null,
            "",
            ""
          ],
          [
            276,
            "CDISCPILOT01",
            "FT",
            "CDISC001",
            276,
            "AVL0204",
            "AVL02-List A Word 4",
            "AVLT-REY",
            "FORM 1",
            "RECALLED",
            "RECALLED",
            null,
            "",
            1,
            201,
            "EARLY DISCONTINUATION RETRIEVAL",
            "TREATMENT",
            "2013-05-20T12:00",
            172,
            "",
            null,
            "",
            ""
          ],
          [
            277,
            "CDISCPILOT01",
            "FT",
            "CDISC001",
            277,
            "AVL0205",
            "AVL02-List A Word 5",
            "AVLT-REY",
            "FORM 1",
            "RECALLED",
            "RECALLED",
            null,
            "",
            1,
            201,
            "EARLY DISCONTINUATION RETRIEVAL",
            "TREATMENT",
            "2013-05-20T12:00",
            172,
            "",
            null,
            "",
            ""
          ],
          [
            278,
            "CDISCPILOT01",
            "FT",
            "CDISC001",
            278,
            "AVL0206",
            "AVL02-List A Word 6",
            "AVLT-REY",
            "FORM 1",
            "RECALLED",
            "RECALLED",
            null,
            "",
            1,
            201,
            "EARLY DISCONTINUATION RETRIEVAL",
            "TREATMENT",
            "2013-05-20T12:00",
            172,
            "",
            null,
            "",
            ""
          ],
          [
            279,
            "CDISCPILOT01",
            "FT",
            "CDISC001",
            279,
            "AVL0207",
            "AVL02-List A Word 7",
            "AVLT-REY",
            "FORM 1",
            "RECALLED",
            "RECALLED",
            null,
            "",
            1,
            201,
            "EARLY DISCONTINUATION RETRIEVAL",
            "TREATMENT",
            "2013-05-20T12:00",
            172,
            "",
            null,
            "",
            ""
          ],
          [
            280,
            "CDISCPILOT01",
            "FT",
            "CDISC001",
            280,
            "AVL0208",
            "AVL02-List A Word 8",
            "AVLT-REY",
            "FORM 1",
            "NOT RECALLED",
            "NOT RECALLED",
            null,
            "",
            1,
            201,
            "EARLY DISCONTINUATION RETRIEVAL",
            "TREATMENT",
            "2013-05-20T12:00",
            172,
            "",
            null,
            "",
            ""
          ],
          [
            281,
            "CDISCPILOT01",
            "FT",
            "CDISC001",
            281,
            "AVL0209",
            "AVL02-List A Word 9",
            "AVLT-REY",
            "FORM 1",
            "NOT RECALLED",
            "NOT RECALLED",
            null,
            "",
            1,
            201,
            "EARLY DISCONTINUATION RETRIEVAL",
            "TREATMENT",
            "2013-05-20T12:00",
            172,
            "",
            null,
            "",
            ""
          ],
          [
            282,
            "CDISCPILOT01",
            "FT",
            "CDISC001",
            282,
            "AVL0210",
            "AVL02-List A Word 10",
            "AVLT-REY",
            "FORM 1",
            "RECALLED",
            "RECALLED",
            null,
            "",
            1,
            201,
            "EARLY DISCONTINUATION RETRIEVAL",
            "TREATMENT",
            "2013-05-20T12:00",
            172,
            "",
            null,
            "",
            ""
          ],
          [
            283,
            "CDISCPILOT01",
            "FT",
            "CDISC001",
            283,
            "AVL0211",
            "AVL02-List A Word 11",
            "AVLT-REY",
            "FORM 1",
            "RECALLED",
            "RECALLED",
            null,
            "",
            1,
            201,
            "EARLY DISCONTINUATION RETRIEVAL",
            "TREATMENT",
            "2013-05-20T12:00",
            172,
            "",
            null,
            "",
            ""
          ],
          [
            284,
            "CDISCPILOT01",
            "FT",
            "CDISC001",
            284,
            "AVL0212",
            "AVL02-List A Word 12",
            "AVLT-REY",
            "FORM 1",
            "RECALLED",
            "RECALLED",
            null,
            "",
            1,
            201,
            "EARLY DISCONTINUATION RETRIEVAL",
            "TREATMENT",
            "2013-05-20T12:00",
            172,
            "",
            null,
            "",
            ""
          ],
          [
            285,
            "CDISCPILOT01",
            "FT",
            "CDISC001",
            285,
            "AVL0213",
            "AVL02-List A Word 13",
            "AVLT-REY",
            "FORM 1",
            "NOT RECALLED",
            "NOT RECALLED",
            null,
            "",
            1,
            201,
            "EARLY DISCONTINUATION RETRIEVAL",
            "TREATMENT",
            "2013-05-20T12:00",
            172,
            "",
            null,
            "",
            ""
          ],
          [
            286,
            "CDISCPILOT01",
            "FT",
            "CDISC001",
            286,
            "AVL0214",
            "AVL02-List A Word 14",
            "AVLT-REY",
            "FORM 1",
            "NOT RECALLED",
            "NOT RECALLED",
            null,
            "",
            1,
            201,
            "EARLY DISCONTINUATION RETRIEVAL",
            "TREATMENT",
            "2013-05-20T12:00",
            172,
            "",
            null,
            "",
            ""
          ],
          [
            287,
            "CDISCPILOT01",
            "FT",
            "CDISC001",
            287,
            "AVL0215",
            "AVL02-List A Word 15",
            "AVLT-REY",
            "FORM 1",
            "NOT RECALLED",
            "NOT RECALLED",
            null,
            "",
            1,
            201,
            "EARLY DISCONTINUATION RETRIEVAL",
            "TREATMENT",
            "2013-05-20T12:00",
            172,
            "",
            null,
            "",
            ""
          ],
          [
            288,
            "CDISCPILOT01",
            "FT",
            "CDISC001",
            288,
            "AVL0216",
            "AVL02-List A Total",
            "AVLT-REY",
            "FORM 1",
            "9",
            "9",
            9,
            "",
            1,
            201,
            "EARLY DISCONTINUATION RETRIEVAL",
            "TREATMENT",
            "2013-05-20T12:00",
            172,
            "",
            null,
            "",
            ""
          ],
          [
            289,
            "CDISCPILOT01",
            "FT",
            "CDISC001",
            289,
            "AVL0217",
            "AVL02-List A Intrusions",
            "AVLT-REY",
            "FORM 1",
            "1",
            "1",
            1,
            "",
            1,
            201,
            "EARLY DISCONTINUATION RETRIEVAL",
            "TREATMENT",
            "2013-05-20T12:00",
            172,
            "",
            null,
            "",
            ""
          ],
          [
            290,
            "CDISCPILOT01",
            "FT",
            "CDISC001",
            290,
            "AVL0201",
            "AVL02-List A Word 1",
            "AVLT-REY",
            "FORM 1",
            "RECALLED",
            "RECALLED",
            null,
            "",
            2,
            201,
            "EARLY DISCONTINUATION RETRIEVAL",
            "TREATMENT",
            "2013-05-20T12:05",
            172,
            "",
            null,
            "",
            ""
          ],
          [
            291,
            "CDISCPILOT01",
            "FT",
            "CDISC001",
            291,
            "AVL0202",
            "AVL02-List A Word 2",
            "AVLT-REY",
            "FORM 1",
            "NOT RECALLED",
            "NOT RECALLED",
            null,
            "",
            2,
            201,
            "EARLY DISCONTINUATION RETRIEVAL",
            "TREATMENT",
            "2013-05-20T12:05",
            172,
            "",
            null,
            "",
            ""
          ],
          [
            292,
            "CDISCPILOT01",
            "FT",
            "CDISC001",
            292,
            "AVL0203",
            "AVL02-List A Word 3",
            "AVLT-REY",
            "FORM 1",
            "RECALLED",
            "RECALLED",
            null,
            "",
            2,
            201,
            "EARLY DISCONTINUATION RETRIEVAL",
            "TREATMENT",
            "2013-05-20T12:05",
            172,
            "",
            null,
            "",
            ""
          ],
          [
            293,
            "CDISCPILOT01",
            "FT",
            "CDISC001",
            293,
            "AVL0204",
            "AVL02-List A Word 4",
            "AVLT-REY",
            "FORM 1",
            "RECALLED",
            "RECALLED",
            null,
            "",
            2,
            201,
            "EARLY DISCONTINUATION RETRIEVAL",
            "TREATMENT",
            "2013-05-20T12:05",
            172,
            "",
            null,
            "",
            ""
          ],
          [
            294,
            "CDISCPILOT01",
            "FT",
            "CDISC001",
            294,
            "AVL0205",
            "AVL02-List A Word 5",
            "AVLT-REY",
            "FORM 1",
            "RECALLED",
            "RECALLED",
            null,
            "",
            2,
            201,
            "EARLY DISCONTINUATION RETRIEVAL",
            "TREATMENT",
            "2013-05-20T12:05",
            172,
            "",
            null,
            "",
            ""
          ],
          [
            295,
            "CDISCPILOT01",
            "FT",
            "CDISC001",
            295,
            "AVL0206",
            "AVL02-List A Word 6",
            "AVLT-REY",
            "FORM 1",
            "RECALLED",
            "RECALLED",
            null,
            "",
            2,
            201,
            "EARLY DISCONTINUATION RETRIEVAL",
            "TREATMENT",
            "2013-05-20T12:05",
            172,
            "",
            null,
            "",
            ""
          ],
          [
            296,
            "CDISCPILOT01",
            "FT",
            "CDISC001",
            296,
            "AVL0207",
            "AVL02-List A Word 7",
            "AVLT-REY",
            "FORM 1",
            "RECALLED",
            "RECALLED",
            null,
            "",
            2,
            201,
            "EARLY DISCONTINUATION RETRIEVAL",
            "TREATMENT",
            "2013-05-20T12:05",
            172,
            "",
            null,
            "",
            ""
          ],
          [
            297,
            "CDISCPILOT01",
            "FT",
            "CDISC001",
            297,
            "AVL0208",
            "AVL02-List A Word 8",
            "AVLT-REY",
            "FORM 1",
            "NOT RECALLED",
            "NOT RECALLED",
            null,
            "",
            2,
            201,
            "EARLY DISCONTINUATION RETRIEVAL",
            "TREATMENT",
            "2013-05-20T12:05",
            172,
            "",
            null,
            "",
            ""
          ],
          [
            298,
            "CDISCPILOT01",
            "FT",
            "CDISC001",
            298,
            "AVL0209",
            "AVL02-List A Word 9",
            "AVLT-REY",
            "FORM 1",
            "NOT RECALLED",
            "NOT RECALLED",
            null,
            "",
            2,
            201,
            "EARLY DISCONTINUATION RETRIEVAL",
            "TREATMENT",
            "2013-05-20T12:05",
            172,
            "",
            null,
            "",
            ""
          ],
          [
            299,
            "CDISCPILOT01",
            "FT",
            "CDISC001",
            299,
            "AVL0210",
            "AVL02-List A Word 10",
            "AVLT-REY",
            "FORM 1",
            "RECALLED",
            "RECALLED",
            null,
            "",
            2,
            201,
            "EARLY DISCONTINUATION RETRIEVAL",
            "TREATMENT",
            "2013-05-20T12:05",
            172,
            "",
            null,
            "",
            ""
          ],
          [
            300,
            "CDISCPILOT01",
            "FT",
            "CDISC001",
            300,
            "AVL0211",
            "AVL02-List A Word 11",
            "AVLT-REY",
            "FORM 1",
            "RECALLED",
            "RECALLED",
            null,
            "",
            2,
            201,
            "EARLY DISCONTINUATION RETRIEVAL",
            "TREATMENT",
            "2013-05-20T12:05",
            172,
            "",
            null,
            "",
            ""
          ],
          [
            301,
            "CDISCPILOT01",
            "FT",
            "CDISC001",
            301,
            "AVL0212",
            "AVL02-List A Word 12",
            "AVLT-REY",
            "FORM 1",
            "RECALLED",
            "RECALLED",
            null,
            "",
            2,
            201,
            "EARLY DISCONTINUATION RETRIEVAL",
            "TREATMENT",
            "2013-05-20T12:05",
            172,
            "",
            null,
            "",
            ""
          ],
          [
            302,
            "CDISCPILOT01",
            "FT",
            "CDISC001",
            302,
            "AVL0213",
            "AVL02-List A Word 13",
            "AVLT-REY",
            "FORM 1",
            "NOT RECALLED",
            "NOT RECALLED",
            null,
            "",
            2,
            201,
            "EARLY DISCONTINUATION RETRIEVAL",
            "TREATMENT",
            "2013-05-20T12:05",
            172,
            "",
            null,
            "",
            ""
          ],
          [
            303,
            "CDISCPILOT01",
            "FT",
            "CDISC001",
            303,
            "AVL0214",
            "AVL02-List A Word 14",
            "AVLT-REY",
            "FORM 1",
            "NOT RECALLED",
            "NOT RECALLED",
            null,
            "",
            2,
            201,
            "EARLY DISCONTINUATION RETRIEVAL",
            "TREATMENT",
            "2013-05-20T12:05",
            172,
            "",
            null,
            "",
            ""
          ],
          [
            304,
            "CDISCPILOT01",
            "FT",
            "CDISC001",
            304,
            "AVL0215",
            "AVL02-List A Word 15",
            "AVLT-REY",
            "FORM 1",
            "NOT RECALLED",
            "NOT RECALLED",
            null,
            "",
            2,
            201,
            "EARLY DISCONTINUATION RETRIEVAL",
            "TREATMENT",
            "2013-05-20T12:05",
            172,
            "",
            null,
            "",
            ""
          ],
          [
            305,
            "CDISCPILOT01",
            "FT",
            "CDISC001",
            305,
            "AVL0216",
            "AVL02-List A Total",
            "AVLT-REY",
            "FORM 1",
            "9",
            "9",
            9,
            "",
            2,
            201,
            "EARLY DISCONTINUATION RETRIEVAL",
            "TREATMENT",
            "2013-05-20T12:05",
            172,
            "",
            null,
            "",
            ""
          ],
          [
            306,
            "CDISCPILOT01",
            "FT",
            "CDISC001",
            306,
            "AVL0217",
            "AVL02-List A Intrusions",
            "AVLT-REY",
            "FORM 1",
            "1",
            "1",
            1,
            "",
            2,
            201,
            "EARLY DISCONTINUATION RETRIEVAL",
            "TREATMENT",
            "2013-05-20T12:05",
            172,
            "",
            null,
            "",
            ""
          ],
          [
            307,
            "CDISCPILOT01",
            "FT",
            "CDISC001",
            307,
            "AVL0201",
            "AVL02-List A Word 1",
            "AVLT-REY",
            "FORM 1",
            "RECALLED",
            "RECALLED",
            null,
            "",
            3,
            201,
            "EARLY DISCONTINUATION RETRIEVAL",
            "TREATMENT",
            "2013-05-20T12:10",
            172,
            "",
            null,
            "",
            ""
          ],
          [
            308,
            "CDISCPILOT01",
            "FT",
            "CDISC001",
            308,
            "AVL0202",
            "AVL02-List A Word 2",
            "AVLT-REY",
            "FORM 1",
            "NOT RECALLED",
            "NOT RECALLED",
            null,
            "",
            3,
            201,
            "EARLY DISCONTINUATION RETRIEVAL",
            "TREATMENT",
            "2013-05-20T12:10",
            172,
            "",
            null,
            "",
            ""
          ],
          [
            309,
            "CDISCPILOT01",
            "FT",
            "CDISC001",
            309,
            "AVL0203",
            "AVL02-List A Word 3",
            "AVLT-REY",
            "FORM 1",
            "RECALLED",
            "RECALLED",
            null,
            "",
            3,
            201,
            "EARLY DISCONTINUATION RETRIEVAL",
            "TREATMENT",
            "2013-05-20T12:10",
            172,
            "",
            null,
            "",
            ""
          ],
          [
            310,
            "CDISCPILOT01",
            "FT",
            "CDISC001",
            310,
            "AVL0204",
            "AVL02-List A Word 4",
            "AVLT-REY",
            "FORM 1",
            "RECALLED",
            "RECALLED",
            null,
            "",
            3,
            201,
            "EARLY DISCONTINUATION RETRIEVAL",
            "TREATMENT",
            "2013-05-20T12:10",
            172,
            "",
            null,
            "",
            ""
          ],
          [
            311,
            "CDISCPILOT01",
            "FT",
            "CDISC001",
            311,
            "AVL0205",
            "AVL02-List A Word 5",
            "AVLT-REY",
            "FORM 1",
            "RECALLED",
            "RECALLED",
            null,
            "",
            3,
            201,
            "EARLY DISCONTINUATION RETRIEVAL",
            "TREATMENT",
            "2013-05-20T12:10",
            172,
            "",
            null,
            "",
            ""
          ],
          [
            312,
            "CDISCPILOT01",
            "FT",
            "CDISC001",
            312,
            "AVL0206",
            "AVL02-List A Word 6",
            "AVLT-REY",
            "FORM 1",
            "RECALLED",
            "RECALLED",
            null,
            "",
            3,
            201,
            "EARLY DISCONTINUATION RETRIEVAL",
            "TREATMENT",
            "2013-05-20T12:10",
            172,
            "",
            null,
            "",
            ""
          ],
          [
            313,
            "CDISCPILOT01",
            "FT",
            "CDISC001",
            313,
            "AVL0207",
            "AVL02-List A Word 7",
            "AVLT-REY",
            "FORM 1",
            "RECALLED",
            "RECALLED",
            null,
            "",
            3,
            201,
            "EARLY DISCONTINUATION RETRIEVAL",
            "TREATMENT",
            "2013-05-20T12:10",
            172,
            "",
            null,
            "",
            ""
          ],
          [
            314,
            "CDISCPILOT01",
            "FT",
            "CDISC001",
            314,
            "AVL0208",
            "AVL02-List A Word 8",
            "AVLT-REY",
            "FORM 1",
            "RECALLED",
            "RECALLED",
            null,
            "",
            3,
            201,
            "EARLY DISCONTINUATION RETRIEVAL",
            "TREATMENT",
            "2013-05-20T12:10",
            172,
            "",
            null,
            "",
            ""
          ],
          [
            315,
            "CDISCPILOT01",
            "FT",
            "CDISC001",
            315,
            "AVL0209",
            "AVL02-List A Word 9",
            "AVLT-REY",
            "FORM 1",
            "NOT RECALLED",
            "NOT RECALLED",
            null,
            "",
            3,
            201,
            "EARLY DISCONTINUATION RETRIEVAL",
            "TREATMENT",
            "2013-05-20T12:10",
            172,
            "",
            null,
            "",
            ""
          ],
          [
            316,
            "CDISCPILOT01",
            "FT",
            "CDISC001",
            316,
            "AVL0210",
            "AVL02-List A Word 10",
            "AVLT-REY",
            "FORM 1",
            "RECALLED",
            "RECALLED",
            null,
            "",
            3,
            201,
            "EARLY DISCONTINUATION RETRIEVAL",
            "TREATMENT",
            "2013-05-20T12:10",
            172,
            "",
            null,
            "",
            ""
          ],
          [
            317,
            "CDISCPILOT01",
            "FT",
            "CDISC001",
            317,
            "AVL0211",
            "AVL02-List A Word 11",
            "AVLT-REY",
            "FORM 1",
            "RECALLED",
            "RECALLED",
            null,
            "",
            3,
            201,
            "EARLY DISCONTINUATION RETRIEVAL",
            "TREATMENT",
            "2013-05-20T12:10",
            172,
            "",
            null,
            "",
            ""
          ],
          [
            318,
            "CDISCPILOT01",
            "FT",
            "CDISC001",
            318,
            "AVL0212",
            "AVL02-List A Word 12",
            "AVLT-REY",
            "FORM 1",
            "RECALLED",
            "RECALLED",
            null,
            "",
            3,
            201,
            "EARLY DISCONTINUATION RETRIEVAL",
            "TREATMENT",
            "2013-05-20T12:10",
            172,
            "",
            null,
            "",
            ""
          ],
          [
            319,
            "CDISCPILOT01",
            "FT",
            "CDISC001",
            319,
            "AVL0213",
            "AVL02-List A Word 13",
            "AVLT-REY",
            "FORM 1",
            "NOT RECALLED",
            "NOT RECALLED",
            null,
            "",
            3,
            201,
            "EARLY DISCONTINUATION RETRIEVAL",
            "TREATMENT",
            "2013-05-20T12:10",
            172,
            "",
            null,
            "",
            ""
          ],
          [
            320,
            "CDISCPILOT01",
            "FT",
            "CDISC001",
            320,
            "AVL0214",
            "AVL02-List A Word 14",
            "AVLT-REY",
            "FORM 1",
            "NOT RECALLED",
            "NOT RECALLED",
            null,
            "",
            3,
            201,
            "EARLY DISCONTINUATION RETRIEVAL",
            "TREATMENT",
            "2013-05-20T12:10",
            172,
            "",
            null,
            "",
            ""
          ],
          [
            321,
            "CDISCPILOT01",
            "FT",
            "CDISC001",
            321,
            "AVL0215",
            "AVL02-List A Word 15",
            "AVLT-REY",
            "FORM 1",
            "NOT RECALLED",
            "NOT RECALLED",
            null,
            "",
            3,
            201,
            "EARLY DISCONTINUATION RETRIEVAL",
            "TREATMENT",
            "2013-05-20T12:10",
            172,
            "",
            null,
            "",
            ""
          ],
          [
            322,
            "CDISCPILOT01",
            "FT",
            "CDISC001",
            322,
            "AVL0216",
            "AVL02-List A Total",
            "AVLT-REY",
            "FORM 1",
            "10",
            "10",
            10,
            "",
            3,
            201,
            "EARLY DISCONTINUATION RETRIEVAL",
            "TREATMENT",
            "2013-05-20T12:10",
            172,
            "",
            null,
            "",
            ""
          ],
          [
            323,
            "CDISCPILOT01",
            "FT",
            "CDISC001",
            323,
            "AVL0217",
            "AVL02-List A Intrusions",
            "AVLT-REY",
            "FORM 1",
            "2",
            "2",
            2,
            "",
            3,
            201,
            "EARLY DISCONTINUATION RETRIEVAL",
            "TREATMENT",
            "2013-05-20T12:10",
            172,
            "",
            null,
            "",
            ""
          ],
          [
            324,
            "CDISCPILOT01",
            "FT",
            "CDISC001",
            324,
            "AVL0201",
            "AVL02-List A Word 1",
            "AVLT-REY",
            "FORM 1",
            "RECALLED",
            "RECALLED",
            null,
            "",
            4,
            201,
            "EARLY DISCONTINUATION RETRIEVAL",
            "TREATMENT",
            "2013-05-20T12:15",
            172,
            "",
            null,
            "",
            ""
          ],
          [
            325,
            "CDISCPILOT01",
            "FT",
            "CDISC001",
            325,
            "AVL0202",
            "AVL02-List A Word 2",
            "AVLT-REY",
            "FORM 1",
            "NOT RECALLED",
            "NOT RECALLED",
            null,
            "",
            4,
            201,
            "EARLY DISCONTINUATION RETRIEVAL",
            "TREATMENT",
            "2013-05-20T12:15",
            172,
            "",
            null,
            "",
            ""
          ],
          [
            326,
            "CDISCPILOT01",
            "FT",
            "CDISC001",
            326,
            "AVL0203",
            "AVL02-List A Word 3",
            "AVLT-REY",
            "FORM 1",
            "RECALLED",
            "RECALLED",
            null,
            "",
            4,
            201,
            "EARLY DISCONTINUATION RETRIEVAL",
            "TREATMENT",
            "2013-05-20T12:15",
            172,
            "",
            null,
            "",
            ""
          ],
          [
            327,
            "CDISCPILOT01",
            "FT",
            "CDISC001",
            327,
            "AVL0204",
            "AVL02-List A Word 4",
            "AVLT-REY",
            "FORM 1",
            "RECALLED",
            "RECALLED",
            null,
            "",
            4,
            201,
            "EARLY DISCONTINUATION RETRIEVAL",
            "TREATMENT",
            "2013-05-20T12:15",
            172,
            "",
            null,
            "",
            ""
          ],
          [
            328,
            "CDISCPILOT01",
            "FT",
            "CDISC001",
            328,
            "AVL0205",
            "AVL02-List A Word 5",
            "AVLT-REY",
            "FORM 1",
            "RECALLED",
            "RECALLED",
            null,
            "",
            4,
            201,
            "EARLY DISCONTINUATION RETRIEVAL",
            "TREATMENT",
            "2013-05-20T12:15",
            172,
            "",
            null,
            "",
            ""
          ],
          [
            329,
            "CDISCPILOT01",
            "FT",
            "CDISC001",
            329,
            "AVL0206",
            "AVL02-List A Word 6",
            "AVLT-REY",
            "FORM 1",
            "RECALLED",
            "RECALLED",
            null,
            "",
            4,
            201,
            "EARLY DISCONTINUATION RETRIEVAL",
            "TREATMENT",
            "2013-05-20T12:15",
            172,
            "",
            null,
            "",
            ""
          ],
          [
            330,
            "CDISCPILOT01",
            "FT",
            "CDISC001",
            330,
            "AVL0207",
            "AVL02-List A Word 7",
            "AVLT-REY",
            "FORM 1",
            "RECALLED",
            "RECALLED",
            null,
            "",
            4,
            201,
            "EARLY DISCONTINUATION RETRIEVAL",
            "TREATMENT",
            "2013-05-20T12:15",
            172,
            "",
            null,
            "",
            ""
          ],
          [
            331,
            "CDISCPILOT01",
            "FT",
            "CDISC001",
            331,
            "AVL0208",
            "AVL02-List A Word 8",
            "AVLT-REY",
            "FORM 1",
            "RECALLED",
            "RECALLED",
            null,
            "",
            4,
            201,
            "EARLY DISCONTINUATION RETRIEVAL",
            "TREATMENT",
            "2013-05-20T12:15",
            172,
            "",
            null,
            "",
            ""
          ],
          [
            332,
            "CDISCPILOT01",
            "FT",
            "CDISC001",
            332,
            "AVL0209",
            "AVL02-List A Word 9",
            "AVLT-REY",
            "FORM 1",
            "RECALLED",
            "RECALLED",
            null,
            "",
            4,
            201,
            "EARLY DISCONTINUATION RETRIEVAL",
            "TREATMENT",
            "2013-05-20T12:15",
            172,
            "",
            null,
            "",
            ""
          ],
          [
            333,
            "CDISCPILOT01",
            "FT",
            "CDISC001",
            333,
            "AVL0210",
            "AVL02-List A Word 10",
            "AVLT-REY",
            "FORM 1",
            "RECALLED",
            "RECALLED",
            null,
            "",
            4,
            201,
            "EARLY DISCONTINUATION RETRIEVAL",
            "TREATMENT",
            "2013-05-20T12:15",
            172,
            "",
            null,
            "",
            ""
          ],
          [
            334,
            "CDISCPILOT01",
            "FT",
            "CDISC001",
            334,
            "AVL0211",
            "AVL02-List A Word 11",
            "AVLT-REY",
            "FORM 1",
            "RECALLED",
            "RECALLED",
            null,
            "",
            4,
            201,
            "EARLY DISCONTINUATION RETRIEVAL",
            "TREATMENT",
            "2013-05-20T12:15",
            172,
            "",
            null,
            "",
            ""
          ],
          [
            335,
            "CDISCPILOT01",
            "FT",
            "CDISC001",
            335,
            "AVL0212",
            "AVL02-List A Word 12",
            "AVLT-REY",
            "FORM 1",
            "RECALLED",
            "RECALLED",
            null,
            "",
            4,
            201,
            "EARLY DISCONTINUATION RETRIEVAL",
            "TREATMENT",
            "2013-05-20T12:15",
            172,
            "",
            null,
            "",
            ""
          ],
          [
            336,
            "CDISCPILOT01",
            "FT",
            "CDISC001",
            336,
            "AVL0213",
            "AVL02-List A Word 13",
            "AVLT-REY",
            "FORM 1",
            "NOT RECALLED",
            "NOT RECALLED",
            null,
            "",
            4,
            201,
            "EARLY DISCONTINUATION RETRIEVAL",
            "TREATMENT",
            "2013-05-20T12:15",
            172,
            "",
            null,
            "",
            ""
          ],
          [
            337,
            "CDISCPILOT01",
            "FT",
            "CDISC001",
            337,
            "AVL0214",
            "AVL02-List A Word 14",
            "AVLT-REY",
            "FORM 1",
            "NOT RECALLED",
            "NOT RECALLED",
            null,
            "",
            4,
            201,
            "EARLY DISCONTINUATION RETRIEVAL",
            "TREATMENT",
            "2013-05-20T12:15",
            172,
            "",
            null,
            "",
            ""
          ],
          [
            338,
            "CDISCPILOT01",
            "FT",
            "CDISC001",
            338,
            "AVL0215",
            "AVL02-List A Word 15",
            "AVLT-REY",
            "FORM 1",
            "NOT RECALLED",
            "NOT RECALLED",
            null,
            "",
            4,
            201,
            "EARLY DISCONTINUATION RETRIEVAL",
            "TREATMENT",
            "2013-05-20T12:15",
            172,
            "",
            null,
            "",
            ""
          ],
          [
            339,
            "CDISCPILOT01",
            "FT",
            "CDISC001",
            339,
            "AVL0216",
            "AVL02-List A Total",
            "AVLT-REY",
            "FORM 1",
            "11",
            "11",
            11,
            "",
            4,
            201,
            "EARLY DISCONTINUATION RETRIEVAL",
            "TREATMENT",
            "2013-05-20T12:15",
            172,
            "",
            null,
            "",
            ""
          ],
          [
            340,
            "CDISCPILOT01",
            "FT",
            "CDISC001",
            340,
            "AVL0217",
            "AVL02-List A Intrusions",
            "AVLT-REY",
            "FORM 1",
            "2",
            "2",
            2,
            "",
            4,
            201,
            "EARLY DISCONTINUATION RETRIEVAL",
            "TREATMENT",
            "2013-05-20T12:15",
            172,
            "",
            null,
            "",
            ""
          ],
          [
            341,
            "CDISCPILOT01",
            "FT",
            "CDISC001",
            341,
            "AVL0201",
            "AVL02-List A Word 1",
            "AVLT-REY",
            "FORM 1",
            "RECALLED",
            "RECALLED",
            null,
            "",
            5,
            201,
            "EARLY DISCONTINUATION RETRIEVAL",
            "TREATMENT",
            "2013-05-20T12:20",
            172,
            "",
            null,
            "",
            ""
          ],
          [
            342,
            "CDISCPILOT01",
            "FT",
            "CDISC001",
            342,
            "AVL0202",
            "AVL02-List A Word 2",
            "AVLT-REY",
            "FORM 1",
            "NOT RECALLED",
            "NOT RECALLED",
            null,
            "",
            5,
            201,
            "EARLY DISCONTINUATION RETRIEVAL",
            "TREATMENT",
            "2013-05-20T12:20",
            172,
            "",
            null,
            "",
            ""
          ],
          [
            343,
            "CDISCPILOT01",
            "FT",
            "CDISC001",
            343,
            "AVL0203",
            "AVL02-List A Word 3",
            "AVLT-REY",
            "FORM 1",
            "RECALLED",
            "RECALLED",
            null,
            "",
            5,
            201,
            "EARLY DISCONTINUATION RETRIEVAL",
            "TREATMENT",
            "2013-05-20T12:20",
            172,
            "",
            null,
            "",
            ""
          ],
          [
            344,
            "CDISCPILOT01",
            "FT",
            "CDISC001",
            344,
            "AVL0204",
            "AVL02-List A Word 4",
            "AVLT-REY",
            "FORM 1",
            "RECALLED",
            "RECALLED",
            null,
            "",
            5,
            201,
            "EARLY DISCONTINUATION RETRIEVAL",
            "TREATMENT",
            "2013-05-20T12:20",
            172,
            "",
            null,
            "",
            ""
          ],
          [
            345,
            "CDISCPILOT01",
            "FT",
            "CDISC001",
            345,
            "AVL0205",
            "AVL02-List A Word 5",
            "AVLT-REY",
            "FORM 1",
            "RECALLED",
            "RECALLED",
            null,
            "",
            5,
            201,
            "EARLY DISCONTINUATION RETRIEVAL",
            "TREATMENT",
            "2013-05-20T12:20",
            172,
            "",
            null,
            "",
            ""
          ],
          [
            346,
            "CDISCPILOT01",
            "FT",
            "CDISC001",
            346,
            "AVL0206",
            "AVL02-List A Word 6",
            "AVLT-REY",
            "FORM 1",
            "RECALLED",
            "RECALLED",
            null,
            "",
            5,
            201,
            "EARLY DISCONTINUATION RETRIEVAL",
            "TREATMENT",
            "2013-05-20T12:20",
            172,
            "",
            null,
            "",
            ""
          ],
          [
            347,
            "CDISCPILOT01",
            "FT",
            "CDISC001",
            347,
            "AVL0207",
            "AVL02-List A Word 7",
            "AVLT-REY",
            "FORM 1",
            "RECALLED",
            "RECALLED",
            null,
            "",
            5,
            201,
            "EARLY DISCONTINUATION RETRIEVAL",
            "TREATMENT",
            "2013-05-20T12:20",
            172,
            "",
            null,
            "",
            ""
          ],
          [
            348,
            "CDISCPILOT01",
            "FT",
            "CDISC001",
            348,
            "AVL0208",
            "AVL02-List A Word 8",
            "AVLT-REY",
            "FORM 1",
            "RECALLED",
            "RECALLED",
            null,
            "",
            5,
            201,
            "EARLY DISCONTINUATION RETRIEVAL",
            "TREATMENT",
            "2013-05-20T12:20",
            172,
            "",
            null,
            "",
            ""
          ],
          [
            349,
            "CDISCPILOT01",
            "FT",
            "CDISC001",
            349,
            "AVL0209",
            "AVL02-List A Word 9",
            "AVLT-REY",
            "FORM 1",
            "RECALLED",
            "RECALLED",
            null,
            "",
            5,
            201,
            "EARLY DISCONTINUATION RETRIEVAL",
            "TREATMENT",
            "2013-05-20T12:20",
            172,
            "",
            null,
            "",
            ""
          ],
          [
            350,
            "CDISCPILOT01",
            "FT",
            "CDISC001",
            350,
            "AVL0210",
            "AVL02-List A Word 10",
            "AVLT-REY",
            "FORM 1",
            "RECALLED",
            "RECALLED",
            null,
            "",
            5,
            201,
            "EARLY DISCONTINUATION RETRIEVAL",
            "TREATMENT",
            "2013-05-20T12:20",
            172,
            "",
            null,
            "",
            ""
          ],
          [
            351,
            "CDISCPILOT01",
            "FT",
            "CDISC001",
            351,
            "AVL0211",
            "AVL02-List A Word 11",
            "AVLT-REY",
            "FORM 1",
            "RECALLED",
            "RECALLED",
            null,
            "",
            5,
            201,
            "EARLY DISCONTINUATION RETRIEVAL",
            "TREATMENT",
            "2013-05-20T12:20",
            172,
            "",
            null,
            "",
            ""
          ],
          [
            352,
            "CDISCPILOT01",
            "FT",
            "CDISC001",
            352,
            "AVL0212",
            "AVL02-List A Word 12",
            "AVLT-REY",
            "FORM 1",
            "RECALLED",
            "RECALLED",
            null,
            "",
            5,
            201,
            "EARLY DISCONTINUATION RETRIEVAL",
            "TREATMENT",
            "2013-05-20T12:20",
            172,
            "",
            null,
            "",
            ""
          ],
          [
            353,
            "CDISCPILOT01",
            "FT",
            "CDISC001",
            353,
            "AVL0213",
            "AVL02-List A Word 13",
            "AVLT-REY",
            "FORM 1",
            "NOT RECALLED",
            "NOT RECALLED",
            null,
            "",
            5,
            201,
            "EARLY DISCONTINUATION RETRIEVAL",
            "TREATMENT",
            "2013-05-20T12:20",
            172,
            "",
            null,
            "",
            ""
          ],
          [
            354,
            "CDISCPILOT01",
            "FT",
            "CDISC001",
            354,
            "AVL0214",
            "AVL02-List A Word 14",
            "AVLT-REY",
            "FORM 1",
            "NOT RECALLED",
            "NOT RECALLED",
            null,
            "",
            5,
            201,
            "EARLY DISCONTINUATION RETRIEVAL",
            "TREATMENT",
            "2013-05-20T12:20",
            172,
            "",
            null,
            "",
            ""
          ],
          [
            355,
            "CDISCPILOT01",
            "FT",
            "CDISC001",
            355,
            "AVL0215",
            "AVL02-List A Word 15",
            "AVLT-REY",
            "FORM 1",
            "NOT RECALLED",
            "NOT RECALLED",
            null,
            "",
            5,
            201,
            "EARLY DISCONTINUATION RETRIEVAL",
            "TREATMENT",
            "2013-05-20T12:20",
            172,
            "",
            null,
            "",
            ""
          ],
          [
            356,
            "CDISCPILOT01",
            "FT",
            "CDISC001",
            356,
            "AVL0216",
            "AVL02-List A Total",
            "AVLT-REY",
            "FORM 1",
            "11",
            "11",
            11,
            "",
            5,
            201,
            "EARLY DISCONTINUATION RETRIEVAL",
            "TREATMENT",
            "2013-05-20T12:20",
            172,
            "",
            null,
            "",
            ""
          ],
          [
            357,
            "CDISCPILOT01",
            "FT",
            "CDISC001",
            357,
            "AVL0217",
            "AVL02-List A Intrusions",
            "AVLT-REY",
            "FORM 1",
            "2",
            "2",
            2,
            "",
            5,
            201,
            "EARLY DISCONTINUATION RETRIEVAL",
            "TREATMENT",
            "2013-05-20T12:20",
            172,
            "",
            null,
            "",
            ""
          ],
          [
            358,
            "CDISCPILOT01",
            "FT",
            "CDISC001",
            358,
            "AVL0218",
            "AVL02-List B Word 1",
            "AVLT-REY",
            "FORM 1",
            "RECALLED",
            "RECALLED",
            null,
            "",
            null,
            201,
            "EARLY DISCONTINUATION RETRIEVAL",
            "TREATMENT",
            "2013-05-20T12:25",
            172,
            "",
            null,
            "",
            ""
          ],
          [
            359,
            "CDISCPILOT01",
            "FT",
            "CDISC001",
            359,
            "AVL0219",
            "AVL02-List B Word 2",
            "AVLT-REY",
            "FORM 1",
            "RECALLED",
            "RECALLED",
            null,
            "",
            null,
            201,
            "EARLY DISCONTINUATION RETRIEVAL",
            "TREATMENT",
            "2013-05-20T12:25",
            172,
            "",
            null,
            "",
            ""
          ],
          [
            360,
            "CDISCPILOT01",
            "FT",
            "CDISC001",
            360,
            "AVL0220",
            "AVL02-List B Word 3",
            "AVLT-REY",
            "FORM 1",
            "RECALLED",
            "RECALLED",
            null,
            "",
            null,
            201,
            "EARLY DISCONTINUATION RETRIEVAL",
            "TREATMENT",
            "2013-05-20T12:25",
            172,
            "",
            null,
            "",
            ""
          ],
          [
            361,
            "CDISCPILOT01",
            "FT",
            "CDISC001",
            361,
            "AVL0221",
            "AVL02-List B Word 4",
            "AVLT-REY",
            "FORM 1",
            "RECALLED",
            "RECALLED",
            null,
            "",
            null,
            201,
            "EARLY DISCONTINUATION RETRIEVAL",
            "TREATMENT",
            "2013-05-20T12:25",
            172,
            "",
            null,
            "",
            ""
          ],
          [
            362,
            "CDISCPILOT01",
            "FT",
            "CDISC001",
            362,
            "AVL0222",
            "AVL02-List B Word 5",
            "AVLT-REY",
            "FORM 1",
            "RECALLED",
            "RECALLED",
            null,
            "",
            null,
            201,
            "EARLY DISCONTINUATION RETRIEVAL",
            "TREATMENT",
            "2013-05-20T12:25",
            172,
            "",
            null,
            "",
            ""
          ],
          [
            363,
            "CDISCPILOT01",
            "FT",
            "CDISC001",
            363,
            "AVL0223",
            "AVL02-List B Word 6",
            "AVLT-REY",
            "FORM 1",
            "RECALLED",
            "RECALLED",
            null,
            "",
            null,
            201,
            "EARLY DISCONTINUATION RETRIEVAL",
            "TREATMENT",
            "2013-05-20T12:25",
            172,
            "",
            null,
            "",
            ""
          ],
          [
            364,
            "CDISCPILOT01",
            "FT",
            "CDISC001",
            364,
            "AVL0224",
            "AVL02-List B Word 7",
            "AVLT-REY",
            "FORM 1",
            "RECALLED",
            "RECALLED",
            null,
            "",
            null,
            201,
            "EARLY DISCONTINUATION RETRIEVAL",
            "TREATMENT",
            "2013-05-20T12:25",
            172,
            "",
            null,
            "",
            ""
          ],
          [
            365,
            "CDISCPILOT01",
            "FT",
            "CDISC001",
            365,
            "AVL0225",
            "AVL02-List B Word 8",
            "AVLT-REY",
            "FORM 1",
            "RECALLED",
            "RECALLED",
            null,
            "",
            null,
            201,
            "EARLY DISCONTINUATION RETRIEVAL",
            "TREATMENT",
            "2013-05-20T12:25",
            172,
            "",
            null,
            "",
            ""
          ],
          [
            366,
            "CDISCPILOT01",
            "FT",
            "CDISC001",
            366,
            "AVL0226",
            "AVL02-List B Word 9",
            "AVLT-REY",
            "FORM 1",
            "RECALLED",
            "RECALLED",
            null,
            "",
            null,
            201,
            "EARLY DISCONTINUATION RETRIEVAL",
            "TREATMENT",
            "2013-05-20T12:25",
            172,
            "",
            null,
            "",
            ""
          ],
          [
            367,
            "CDISCPILOT01",
            "FT",
            "CDISC001",
            367,
            "AVL0227",
            "AVL02-List B Word 10",
            "AVLT-REY",
            "FORM 1",
            "NOT RECALLED",
            "NOT RECALLED",
            null,
            "",
            null,
            201,
            "EARLY DISCONTINUATION RETRIEVAL",
            "TREATMENT",
            "2013-05-20T12:25",
            172,
            "",
            null,
            "",
            ""
          ],
          [
            368,
            "CDISCPILOT01",
            "FT",
            "CDISC001",
            368,
            "AVL0228",
            "AVL02-List B Word 11",
            "AVLT-REY",
            "FORM 1",
            "NOT RECALLED",
            "NOT RECALLED",
            null,
            "",
            null,
            201,
            "EARLY DISCONTINUATION RETRIEVAL",
            "TREATMENT",
            "2013-05-20T12:25",
            172,
            "",
            null,
            "",
            ""
          ],
          [
            369,
            "CDISCPILOT01",
            "FT",
            "CDISC001",
            369,
            "AVL0229",
            "AVL02-List B Word 12",
            "AVLT-REY",
            "FORM 1",
            "NOT RECALLED",
            "NOT RECALLED",
            null,
            "",
            null,
            201,
            "EARLY DISCONTINUATION RETRIEVAL",
            "TREATMENT",
            "2013-05-20T12:25",
            172,
            "",
            null,
            "",
            ""
          ],
          [
            370,
            "CDISCPILOT01",
            "FT",
            "CDISC001",
            370,
            "AVL0230",
            "AVL02-List B Word 13",
            "AVLT-REY",
            "FORM 1",
            "RECALLED",
            "RECALLED",
            null,
            "",
            null,
            201,
            "EARLY DISCONTINUATION RETRIEVAL",
            "TREATMENT",
            "2013-05-20T12:25",
            172,
            "",
            null,
            "",
            ""
          ],
          [
            371,
            "CDISCPILOT01",
            "FT",
            "CDISC001",
            371,
            "AVL0231",
            "AVL02-List B Word 14",
            "AVLT-REY",
            "FORM 1",
            "RECALLED",
            "RECALLED",
            null,
            "",
            null,
            201,
            "EARLY DISCONTINUATION RETRIEVAL",
            "TREATMENT",
            "2013-05-20T12:25",
            172,
            "",
            null,
            "",
            ""
          ],
          [
            372,
            "CDISCPILOT01",
            "FT",
            "CDISC001",
            372,
            "AVL0232",
            "AVL02-List B Word 15",
            "AVLT-REY",
            "FORM 1",
            "RECALLED",
            "RECALLED",
            null,
            "",
            null,
            201,
            "EARLY DISCONTINUATION RETRIEVAL",
            "TREATMENT",
            "2013-05-20T12:25",
            172,
            "",
            null,
            "",
            ""
          ],
          [
            373,
            "CDISCPILOT01",
            "FT",
            "CDISC001",
            373,
            "AVL0233",
            "AVL02- List B Total",
            "AVLT-REY",
            "FORM 1",
            "12",
            "12",
            12,
            "",
            null,
            201,
            "EARLY DISCONTINUATION RETRIEVAL",
            "TREATMENT",
            "2013-05-20T12:25",
            172,
            "",
            null,
            "",
            ""
          ],
          [
            374,
            "CDISCPILOT01",
            "FT",
            "CDISC001",
            374,
            "AVL0234",
            "AVL02-List B Intrusions",
            "AVLT-REY",
            "FORM 1",
            "0",
            "0",
            0,
            "",
            null,
            201,
            "EARLY DISCONTINUATION RETRIEVAL",
            "TREATMENT",
            "2013-05-20T12:25",
            172,
            "",
            null,
            "",
            ""
          ],
          [
            375,
            "CDISCPILOT01",
            "FT",
            "CDISC001",
            375,
            "AVL0201",
            "AVL02-List A Word 1",
            "AVLT-REY",
            "FORM 1",
            "RECALLED",
            "RECALLED",
            null,
            "",
            6,
            201,
            "EARLY DISCONTINUATION RETRIEVAL",
            "TREATMENT",
            "2013-05-20T12:30",
            172,
            "",
            null,
            "",
            ""
          ],
          [
            376,
            "CDISCPILOT01",
            "FT",
            "CDISC001",
            376,
            "AVL0202",
            "AVL02-List A Word 2",
            "AVLT-REY",
            "FORM 1",
            "NOT RECALLED",
            "NOT RECALLED",
            null,
            "",
            6,
            201,
            "EARLY DISCONTINUATION RETRIEVAL",
            "TREATMENT",
            "2013-05-20T12:30",
            172,
            "",
            null,
            "",
            ""
          ],
          [
            377,
            "CDISCPILOT01",
            "FT",
            "CDISC001",
            377,
            "AVL0203",
            "AVL02-List A Word 3",
            "AVLT-REY",
