{
  "clinicalData": {
    "studyOID": "cdisc.com/CDISCPILOT01",
    "metaDataVersionOID": "MDV.MSGv2.0.SDTMIG.3.3.SDTM.1.7",
    "itemGroupData": {
      "IG.SUPPNV": {
        "records": 0,
        "name": "SUPPNV",
        "label": "Supplemental Qualifiers for NV",
        "items": [
          {
            "OID": "ITEMGROUPDATASEQ",
            "name": "ITEMGROUPDATASEQ",
            "label": "Record identifier",
            "type": "integer"
          },
          {
            "OID": "IT.SUPPNV.STUDYID",
            "name": "STUDYID",
            "label": "Study Identifier",
            "type": "string",
            "length": 12
          },
          {
            "OID": "IT.SUPPNV.RDOMAIN",
            "name": "RDOMAIN",
            "label": "Related Domain Abbreviation",
            "type": "string",
            "length": 6
          },
          {
            "OID": "IT.SUPPNV.USUBJID",
            "name": "USUBJID",
            "label": "Unique Subject Identifier",
            "type": "string",
            "length": 8
          },
          {
            "OID": "IT.SUPPNV.IDVAR",
            "name": "IDVAR",
            "label": "Identifying Variable",
            "type": "string",
            "length": 200
          },
          {
            "OID": "IT.SUPPNV.IDVARVAL",
            "name": "IDVARVAL",
            "label": "Identifying Variable Value",
            "type": "string",
            "length": 200
          },
          {
            "OID": "IT.SUPPNV.QNAM",
            "name": "QNAM",
            "label": "Qualifier Variable Name",
            "type": "string",
            "length": 7
          },
          {
            "OID": "IT.SUPPNV.QLABEL",
            "name": "QLABEL",
            "label": "Qualifier Variable Label",
            "type": "string",
            "length": 40
          },
          {
            "OID": "IT.SUPPNV.QVAL",
            "name": "QVAL",
            "label": "Data Value",
            "type": "string",
            "length": 1
          },
          {
            "OID": "IT.SUPPNV.QORIG",
            "name": "QORIG",
            "label": "Origin",
            "type": "string",
            "length": 13
          },
          {
            "OID": "IT.SUPPNV.QEVAL",
            "name": "QEVAL",
            "label": "Evaluator",
            "type": "string",
            "length": 200
          }
        ],
        "itemData": [

        ]
      }
    }
  }
}
