{
  "clinicalData": {
    "studyOID": "cdisc.com/CDISCPILOT01",
    "metaDataVersionOID": "MDV.MSGv2.0.SDTMIG.3.3.SDTM.1.7",
    "itemGroupData": {
      "IG.VS": {
        "records": 1414,
        "name": "VS",
        "label": "Vital Signs",
        "items": [
          {
            "OID": "ITEMGROUPDATASEQ",
            "name": "ITEMGROUPDATASEQ",
            "label": "Record identifier",
            "type": "integer"
          },
          {
            "OID": "IT.VS.STUDYID",
            "name": "STUDYID",
            "label": "Study Identifier",
            "type": "string",
            "length": 12
          },
          {
            "OID": "IT.VS.DOMAIN",
            "name": "DOMAIN",
            "label": "Domain Abbreviation",
            "type": "string",
            "length": 2
          },
          {
            "OID": "IT.VS.USUBJID",
            "name": "USUBJID",
            "label": "Unique Subject Identifier",
            "type": "string",
            "length": 8
          },
          {
            "OID": "IT.VS.VSSEQ",
            "name": "VSSEQ",
            "label": "Sequence Number",
            "type": "integer",
            "length": 3
          },
          {
            "OID": "IT.VS.VSTESTCD",
            "name": "VSTESTCD",
            "label": "Vital Signs Test Short Name",
            "type": "string",
            "length": 6
          },
          {
            "OID": "IT.VS.VSTEST",
            "name": "VSTEST",
            "label": "Vital Signs Test Name",
            "type": "string",
            "length": 24
          },
          {
            "OID": "IT.VS.VSPOS",
            "name": "VSPOS",
            "label": "Vital Signs Position of Subject",
            "type": "string",
            "length": 8
          },
          {
            "OID": "IT.VS.VSORRES",
            "name": "VSORRES",
            "label": "Result or Finding in Original Units",
            "type": "string",
            "length": 8
          },
          {
            "OID": "IT.VS.VSORRESU",
            "name": "VSORRESU",
            "label": "Original Units",
            "type": "string",
            "length": 9
          },
          {
            "OID": "IT.VS.VSSTRESC",
            "name": "VSSTRESC",
            "label": "Character Result/Finding in Std Format",
            "type": "string",
            "length": 200
          },
          {
            "OID": "IT.VS.VSSTRESN",
            "name": "VSSTRESN",
            "label": "Numeric Result/Finding in Standard Units",
            "type": "float",
            "length": 8
          },
          {
            "OID": "IT.VS.VSSTRESU",
            "name": "VSSTRESU",
            "label": "Standard Units",
            "type": "string",
            "length": 9
          },
          {
            "OID": "IT.VS.VSSTAT",
            "name": "VSSTAT",
            "label": "Completion Status",
            "type": "string",
            "length": 8
          },
          {
            "OID": "IT.VS.VSLOC",
            "name": "VSLOC",
            "label": "Location of Vital Signs Measurement",
            "type": "string",
            "length": 11
          },
          {
            "OID": "IT.VS.VSLOBXFL",
            "name": "VSLOBXFL",
            "label": "Last Observation Before Exposure Flag",
            "type": "string",
            "length": 1
          },
          {
            "OID": "IT.VS.VSREPNUM",
            "name": "VSREPNUM",
            "label": "Repetition Number",
            "type": "integer",
            "length": 8
          },
          {
            "OID": "IT.VS.VISITNUM",
            "name": "VISITNUM",
            "label": "Visit Number",
            "type": "float",
            "length": 8
          },
          {
            "OID": "IT.VS.VISIT",
            "name": "VISIT",
            "label": "Visit Name",
            "type": "string",
            "length": 200
          },
          {
            "OID": "IT.VS.EPOCH",
            "name": "EPOCH",
            "label": "Epoch",
            "type": "string",
            "length": 9
          },
          {
            "OID": "IT.VS.VSDTC",
            "name": "VSDTC",
            "label": "Date/Time of Measurements",
            "type": "string"
          },
          {
            "OID": "IT.VS.VSDY",
            "name": "VSDY",
            "label": "Study Day of Vital Signs",
            "type": "integer",
            "length": 8
          }
        ],
        "itemData": [
          [
            1,
            "CDISCPILOT01",
            "VS",
            "CDISC001",
            1,
            "DIABP",
            "Diastolic Blood Pressure",
            "STANDING",
            "71",
            "mmHg",
            "71",
            71,
            "mmHg",
            "",
            "",
            "",
            null,
            1,
            "SCREENING 1",
            "SCREENING",
            "2012-11-23",
            -7
          ],
          [
            2,
            "CDISCPILOT01",
            "VS",
            "CDISC001",
            2,
            "DIABP",
            "Diastolic Blood Pressure",
            "STANDING",
            "71",
            "mmHg",
            "71",
            71,
            "mmHg",
            "",
            "",
            "",
            null,
            2,
            "SCREENING 2",
            "SCREENING",
            "2012-11-28",
            -2
          ],
          [
            3,
            "CDISCPILOT01",
            "VS",
            "CDISC001",
            3,
            "DIABP",
            "Diastolic Blood Pressure",
            "STANDING",
            "83",
            "mmHg",
            "83",
            83,
            "mmHg",
            "",
            "",
            "Y",
            null,
            3,
            "BASELINE",
            "SCREENING",
            "2012-11-30",
            1
          ],
          [
            4,
            "CDISCPILOT01",
            "VS",
            "CDISC001",
            4,
            "DIABP",
            "Diastolic Blood Pressure",
            "STANDING",
            "79",
            "mmHg",
            "79",
            79,
            "mmHg",
            "",
            "",
            "",
            null,
            4,
            "WEEK 2",
            "TREATMENT",
            "2012-12-13",
            14
          ],
          [
            5,
            "CDISCPILOT01",
            "VS",
            "CDISC001",
            5,
            "DIABP",
            "Diastolic Blood Pressure",
            "STANDING",
            "68",
            "mmHg",
            "68",
            68,
            "mmHg",
            "",
            "",
            "",
            null,
            5,
            "WEEK 4",
            "TREATMENT",
            "2012-12-26",
            27
          ],
          [
            6,
            "CDISCPILOT01",
            "VS",
            "CDISC001",
            6,
            "DIABP",
            "Diastolic Blood Pressure",
            "SUPINE",
            "77",
            "mmHg",
            "77",
            77,
            "mmHg",
            "",
            "",
            "",
            1,
            7,
            "WEEK 6",
            "TREATMENT",
            "2013-01-10",
            42
          ],
          [
            7,
            "CDISCPILOT01",
            "VS",
            "CDISC001",
            7,
            "DIABP",
            "Diastolic Blood Pressure",
            "STANDING",
            "71",
            "mmHg",
            "71",
            71,
            "mmHg",
            "",
            "",
            "",
            2,
            7,
            "WEEK 6",
            "TREATMENT",
            "2013-01-10",
            42
          ],
          [
            8,
            "CDISCPILOT01",
            "VS",
            "CDISC001",
            8,
            "DIABP",
            "Diastolic Blood Pressure",
            "STANDING",
            "69",
            "mmHg",
            "69",
            69,
            "mmHg",
            "",
            "",
            "",
            3,
            7,
            "WEEK 6",
            "TREATMENT",
            "2013-01-10",
            42
          ],
          [
            9,
            "CDISCPILOT01",
            "VS",
            "CDISC001",
            9,
            "DIABP",
            "Diastolic Blood Pressure",
            "SUPINE",
            "76",
            "mmHg",
            "76",
            76,
            "mmHg",
            "",
            "",
            "",
            1,
            8,
            "WEEK 8",
            "TREATMENT",
            "2013-01-23",
            55
          ],
          [
            10,
            "CDISCPILOT01",
            "VS",
            "CDISC001",
            10,
            "DIABP",
            "Diastolic Blood Pressure",
            "STANDING",
            "52",
            "mmHg",
            "52",
            52,
            "mmHg",
            "",
            "",
            "",
            2,
            8,
            "WEEK 8",
            "TREATMENT",
            "2013-01-23",
            55
          ],
          [
            11,
            "CDISCPILOT01",
            "VS",
            "CDISC001",
            11,
            "DIABP",
            "Diastolic Blood Pressure",
            "STANDING",
            "60",
            "mmHg",
            "60",
            60,
            "mmHg",
            "",
            "",
            "",
            3,
            8,
            "WEEK 8",
            "TREATMENT",
            "2013-01-23",
            55
          ],
          [
            12,
            "CDISCPILOT01",
            "VS",
            "CDISC001",
            12,
            "DIABP",
            "Diastolic Blood Pressure",
            "SUPINE",
            "68",
            "mmHg",
            "68",
            68,
            "mmHg",
            "",
            "",
            "",
            1,
            201,
            "EARLY DISCONTINUATION RETRIEVAL",
            "TREATMENT",
            "2013-05-20",
            172
          ],
          [
            13,
            "CDISCPILOT01",
            "VS",
            "CDISC001",
            13,
            "DIABP",
            "Diastolic Blood Pressure",
            "STANDING",
            "72",
            "mmHg",
            "72",
            72,
            "mmHg",
            "",
            "",
            "",
            2,
            201,
            "EARLY DISCONTINUATION RETRIEVAL",
            "TREATMENT",
            "2013-05-20",
            172
          ],
          [
            14,
            "CDISCPILOT01",
            "VS",
            "CDISC001",
            14,
            "DIABP",
            "Diastolic Blood Pressure",
            "STANDING",
            "68",
            "mmHg",
            "68",
            68,
            "mmHg",
            "",
            "",
            "",
            3,
            201,
            "EARLY DISCONTINUATION RETRIEVAL",
            "TREATMENT",
            "2013-05-20",
            172
          ],
          [
            15,
            "CDISCPILOT01",
            "VS",
            "CDISC001",
            15,
            "HEIGHT",
            "Height",
            "",
            "71.5",
            "in",
            "181.61",
            181.61,
            "cm",
            "",
            "",
            "",
            null,
            1,
            "SCREENING 1",
            "SCREENING",
            "2012-11-23",
            -7
          ],
          [
            16,
            "CDISCPILOT01",
            "VS",
            "CDISC001",
            16,
            "PULSE",
            "Pulse Rate",
            "STANDING",
            "51",
            "beats/min",
            "51",
            51,
            "beats/min",
            "",
            "",
            "",
            null,
            1,
            "SCREENING 1",
            "SCREENING",
            "2012-11-23",
            -7
          ],
          [
            17,
            "CDISCPILOT01",
            "VS",
            "CDISC001",
            17,
            "PULSE",
            "Pulse Rate",
            "STANDING",
            "50",
            "beats/min",
            "50",
            50,
            "beats/min",
            "",
            "",
            "",
            null,
            2,
            "SCREENING 2",
            "SCREENING",
            "2012-11-28",
            -2
          ],
          [
            18,
            "CDISCPILOT01",
            "VS",
            "CDISC001",
            18,
            "PULSE",
            "Pulse Rate",
            "STANDING",
            "50",
            "beats/min",
            "50",
            50,
            "beats/min",
            "",
            "",
            "Y",
            null,
            3,
            "BASELINE",
            "SCREENING",
            "2012-11-30",
            1
          ],
          [
            19,
            "CDISCPILOT01",
            "VS",
            "CDISC001",
            19,
            "PULSE",
            "Pulse Rate",
            "STANDING",
            "53",
            "beats/min",
            "53",
            53,
            "beats/min",
            "",
            "",
            "",
            null,
            4,
            "WEEK 2",
            "TREATMENT",
            "2012-12-13",
            14
          ],
          [
            20,
            "CDISCPILOT01",
            "VS",
            "CDISC001",
            20,
            "PULSE",
            "Pulse Rate",
            "STANDING",
            "51",
            "beats/min",
            "51",
            51,
            "beats/min",
            "",
            "",
            "",
            null,
            5,
            "WEEK 4",
            "TREATMENT",
            "2012-12-26",
            27
          ],
          [
            21,
            "CDISCPILOT01",
            "VS",
            "CDISC001",
            21,
            "PULSE",
            "Pulse Rate",
            "SUPINE",
            "52",
            "beats/min",
            "52",
            52,
            "beats/min",
            "",
            "",
            "",
            1,
            7,
            "WEEK 6",
            "TREATMENT",
            "2013-01-10",
            42
          ],
          [
            22,
            "CDISCPILOT01",
            "VS",
            "CDISC001",
            22,
            "PULSE",
            "Pulse Rate",
            "STANDING",
            "62",
            "beats/min",
            "62",
            62,
            "beats/min",
            "",
            "",
            "",
            2,
            7,
            "WEEK 6",
            "TREATMENT",
            "2013-01-10",
            42
          ],
          [
            23,
            "CDISCPILOT01",
            "VS",
            "CDISC001",
            23,
            "PULSE",
            "Pulse Rate",
            "STANDING",
            "62",
            "beats/min",
            "62",
            62,
            "beats/min",
            "",
            "",
            "",
            3,
            7,
            "WEEK 6",
            "TREATMENT",
            "2013-01-10",
            42
          ],
          [
            24,
            "CDISCPILOT01",
            "VS",
            "CDISC001",
            24,
            "PULSE",
            "Pulse Rate",
            "SUPINE",
            "50",
            "beats/min",
            "50",
            50,
            "beats/min",
            "",
            "",
            "",
            1,
            8,
            "WEEK 8",
            "TREATMENT",
            "2013-01-23",
            55
          ],
          [
            25,
            "CDISCPILOT01",
            "VS",
            "CDISC001",
            25,
            "PULSE",
            "Pulse Rate",
            "STANDING",
            "52",
            "beats/min",
            "52",
            52,
            "beats/min",
            "",
            "",
            "",
            2,
            8,
            "WEEK 8",
            "TREATMENT",
            "2013-01-23",
            55
          ],
          [
            26,
            "CDISCPILOT01",
            "VS",
            "CDISC001",
            26,
            "PULSE",
            "Pulse Rate",
            "STANDING",
            "54",
            "beats/min",
            "54",
            54,
            "beats/min",
            "",
            "",
            "",
            3,
            8,
            "WEEK 8",
            "TREATMENT",
            "2013-01-23",
            55
          ],
          [
            27,
            "CDISCPILOT01",
            "VS",
            "CDISC001",
            27,
            "PULSE",
            "Pulse Rate",
            "SUPINE",
            "79",
            "beats/min",
            "79",
            79,
            "beats/min",
            "",
            "",
            "",
            1,
            201,
            "EARLY DISCONTINUATION RETRIEVAL",
            "TREATMENT",
            "2013-05-20",
            172
          ],
          [
            28,
            "CDISCPILOT01",
            "VS",
            "CDISC001",
            28,
            "PULSE",
            "Pulse Rate",
            "STANDING",
            "98",
            "beats/min",
            "98",
            98,
            "beats/min",
            "",
            "",
            "",
            2,
            201,
            "EARLY DISCONTINUATION RETRIEVAL",
            "TREATMENT",
            "2013-05-20",
            172
          ],
          [
            29,
            "CDISCPILOT01",
            "VS",
            "CDISC001",
            29,
            "PULSE",
            "Pulse Rate",
            "STANDING",
            "94",
            "beats/min",
            "94",
            94,
            "beats/min",
            "",
            "",
            "",
            3,
            201,
            "EARLY DISCONTINUATION RETRIEVAL",
            "TREATMENT",
            "2013-05-20",
            172
          ],
          [
            30,
            "CDISCPILOT01",
            "VS",
            "CDISC001",
            30,
            "SYSBP",
            "Systolic Blood Pressure",
            "STANDING",
            "137",
            "mmHg",
            "137",
            137,
            "mmHg",
            "",
            "",
            "",
            null,
            1,
            "SCREENING 1",
            "SCREENING",
            "2012-11-23",
            -7
          ],
          [
            31,
            "CDISCPILOT01",
            "VS",
            "CDISC001",
            31,
            "SYSBP",
            "Systolic Blood Pressure",
            "STANDING",
            "137",
            "mmHg",
            "137",
            137,
            "mmHg",
            "",
            "",
            "",
            null,
            2,
            "SCREENING 2",
            "SCREENING",
            "2012-11-28",
            -2
          ],
          [
            32,
            "CDISCPILOT01",
            "VS",
            "CDISC001",
            32,
            "SYSBP",
            "Systolic Blood Pressure",
            "STANDING",
            "130",
            "mmHg",
            "130",
            130,
            "mmHg",
            "",
            "",
            "Y",
            null,
            3,
            "BASELINE",
            "SCREENING",
            "2012-11-30",
            1
          ],
          [
            33,
            "CDISCPILOT01",
            "VS",
            "CDISC001",
            33,
            "SYSBP",
            "Systolic Blood Pressure",
            "STANDING",
            "122",
            "mmHg",
            "122",
            122,
            "mmHg",
            "",
            "",
            "",
            null,
            4,
            "WEEK 2",
            "TREATMENT",
            "2012-12-13",
            14
          ],
          [
            34,
            "CDISCPILOT01",
            "VS",
            "CDISC001",
            34,
            "SYSBP",
            "Systolic Blood Pressure",
            "STANDING",
            "115",
            "mmHg",
            "115",
            115,
            "mmHg",
            "",
            "",
            "",
            null,
            5,
            "WEEK 4",
            "TREATMENT",
            "2012-12-26",
            27
          ],
          [
            35,
            "CDISCPILOT01",
            "VS",
            "CDISC001",
            35,
            "SYSBP",
            "Systolic Blood Pressure",
            "SUPINE",
            "131",
            "mmHg",
            "131",
            131,
            "mmHg",
            "",
            "",
            "",
            1,
            7,
            "WEEK 6",
            "TREATMENT",
            "2013-01-10",
            42
          ],
          [
            36,
            "CDISCPILOT01",
            "VS",
            "CDISC001",
            36,
            "SYSBP",
            "Systolic Blood Pressure",
            "STANDING",
            "107",
            "mmHg",
            "107",
            107,
            "mmHg",
            "",
            "",
            "",
            2,
            7,
            "WEEK 6",
            "TREATMENT",
            "2013-01-10",
            42
          ],
          [
            37,
            "CDISCPILOT01",
            "VS",
            "CDISC001",
            37,
            "SYSBP",
            "Systolic Blood Pressure",
            "STANDING",
            "104",
            "mmHg",
            "104",
            104,
            "mmHg",
            "",
            "",
            "",
            3,
            7,
            "WEEK 6",
            "TREATMENT",
            "2013-01-10",
            42
          ],
          [
            38,
            "CDISCPILOT01",
            "VS",
            "CDISC001",
            38,
            "SYSBP",
            "Systolic Blood Pressure",
            "SUPINE",
            "123",
            "mmHg",
            "123",
            123,
            "mmHg",
            "",
            "",
            "",
            1,
            8,
            "WEEK 8",
            "TREATMENT",
            "2013-01-23",
            55
          ],
          [
            39,
            "CDISCPILOT01",
            "VS",
            "CDISC001",
            39,
            "SYSBP",
            "Systolic Blood Pressure",
            "STANDING",
            "113",
            "mmHg",
            "113",
            113,
            "mmHg",
            "",
            "",
            "",
            2,
            8,
            "WEEK 8",
            "TREATMENT",
            "2013-01-23",
            55
          ],
          [
            40,
            "CDISCPILOT01",
            "VS",
            "CDISC001",
            40,
            "SYSBP",
            "Systolic Blood Pressure",
            "STANDING",
            "98",
            "mmHg",
            "98",
            98,
            "mmHg",
            "",
            "",
            "",
            3,
            8,
            "WEEK 8",
            "TREATMENT",
            "2013-01-23",
            55
          ],
          [
            41,
            "CDISCPILOT01",
            "VS",
            "CDISC001",
            41,
            "SYSBP",
            "Systolic Blood Pressure",
            "SUPINE",
            "99",
            "mmHg",
            "99",
            99,
            "mmHg",
            "",
            "",
            "",
            1,
            201,
            "EARLY DISCONTINUATION RETRIEVAL",
            "TREATMENT",
            "2013-05-20",
            172
          ],
          [
            42,
            "CDISCPILOT01",
            "VS",
            "CDISC001",
            42,
            "SYSBP",
            "Systolic Blood Pressure",
            "STANDING",
            "99",
            "mmHg",
            "99",
            99,
            "mmHg",
            "",
            "",
            "",
            2,
            201,
            "EARLY DISCONTINUATION RETRIEVAL",
            "TREATMENT",
            "2013-05-20",
            172
          ],
          [
            43,
            "CDISCPILOT01",
            "VS",
            "CDISC001",
            43,
            "SYSBP",
            "Systolic Blood Pressure",
            "STANDING",
            "99",
            "mmHg",
            "99",
            99,
            "mmHg",
            "",
            "",
            "",
            3,
            201,
            "EARLY DISCONTINUATION RETRIEVAL",
            "TREATMENT",
            "2013-05-20",
            172
          ],
          [
            44,
            "CDISCPILOT01",
            "VS",
            "CDISC001",
            44,
            "TEMP",
            "Temperature",
            "",
            "97.4",
            "F",
            "36.33",
            36.33,
            "C",
            "",
            "ORAL CAVITY",
            "",
            null,
            1,
            "SCREENING 1",
            "SCREENING",
            "2012-11-23",
            -7
          ],
          [
            45,
            "CDISCPILOT01",
            "VS",
            "CDISC001",
            45,
            "TEMP",
            "Temperature",
            "",
            "97.2",
            "F",
            "36.22",
            36.22,
            "C",
            "",
            "ORAL CAVITY",
            "",
            null,
            2,
            "SCREENING 2",
            "SCREENING",
            "2012-11-28",
            -2
          ],
          [
            46,
            "CDISCPILOT01",
            "VS",
            "CDISC001",
            46,
            "TEMP",
            "Temperature",
            "",
            "98.0",
            "F",
            "36.67",
            36.67,
            "C",
            "",
            "ORAL CAVITY",
            "Y",
            null,
            3,
            "BASELINE",
            "SCREENING",
            "2012-11-30",
            1
          ],
          [
            47,
            "CDISCPILOT01",
            "VS",
            "CDISC001",
            47,
            "TEMP",
            "Temperature",
            "",
            "98.0",
            "F",
            "36.67",
            36.67,
            "C",
            "",
            "ORAL CAVITY",
            "",
            null,
            4,
            "WEEK 2",
            "TREATMENT",
            "2012-12-13",
            14
          ],
          [
            48,
            "CDISCPILOT01",
            "VS",
            "CDISC001",
            48,
            "TEMP",
            "Temperature",
            "",
            "97.7",
            "F",
            "36.5",
            36.5,
            "C",
            "",
            "ORAL CAVITY",
            "",
            null,
            5,
            "WEEK 4",
            "TREATMENT",
            "2012-12-26",
            27
          ],
          [
            49,
            "CDISCPILOT01",
            "VS",
            "CDISC001",
            49,
            "TEMP",
            "Temperature",
            "",
            "97.6",
            "F",
            "36.44",
            36.44,
            "C",
            "",
            "ORAL CAVITY",
            "",
            null,
            7,
            "WEEK 6",
            "TREATMENT",
            "2013-01-10",
            42
          ],
          [
            50,
            "CDISCPILOT01",
            "VS",
            "CDISC001",
            50,
            "TEMP",
            "Temperature",
            "",
            "97.6",
            "F",
            "36.44",
            36.44,
            "C",
            "",
            "ORAL CAVITY",
            "",
            null,
            8,
            "WEEK 8",
            "TREATMENT",
            "2013-01-23",
            55
          ],
          [
            51,
            "CDISCPILOT01",
            "VS",
            "CDISC001",
            51,
            "TEMP",
            "Temperature",
            "",
            "97.4",
            "F",
            "36.33",
            36.33,
            "C",
            "",
            "ORAL CAVITY",
            "",
            null,
            201,
            "EARLY DISCONTINUATION RETRIEVAL",
            "TREATMENT",
            "2013-05-20",
            172
          ],
          [
            52,
            "CDISCPILOT01",
            "VS",
            "CDISC001",
            52,
            "WEIGHT",
            "Weight",
            "",
            "173.5",
            "LB",
            "78.7",
            78.7,
            "kg",
            "",
            "",
            "",
            null,
            1,
            "SCREENING 1",
            "SCREENING",
            "2012-11-23",
            -7
          ],
          [
            53,
            "CDISCPILOT01",
            "VS",
            "CDISC001",
            53,
            "WEIGHT",
            "Weight",
            "",
            "174.0",
            "LB",
            "78.93",
            78.93,
            "kg",
            "",
            "",
            "Y",
            null,
            3,
            "BASELINE",
            "SCREENING",
            "2012-11-30",
            1
          ],
          [
            54,
            "CDISCPILOT01",
            "VS",
            "CDISC001",
            54,
            "WEIGHT",
            "Weight",
            "",
            "174.0",
            "LB",
            "78.93",
            78.93,
            "kg",
            "",
            "",
            "",
            null,
            4,
            "WEEK 2",
            "TREATMENT",
            "2012-12-13",
            14
          ],
          [
            55,
            "CDISCPILOT01",
            "VS",
            "CDISC001",
            55,
            "WEIGHT",
            "Weight",
            "",
            "173.0",
            "LB",
            "78.47",
            78.47,
            "kg",
            "",
            "",
            "",
            null,
            5,
            "WEEK 4",
            "TREATMENT",
            "2012-12-26",
            27
          ],
          [
            56,
            "CDISCPILOT01",
            "VS",
            "CDISC001",
            56,
            "WEIGHT",
            "Weight",
            "",
            "173.0",
            "LB",
            "78.47",
            78.47,
            "kg",
            "",
            "",
            "",
            null,
            7,
            "WEEK 6",
            "TREATMENT",
            "2013-01-10",
            42
          ],
          [
            57,
            "CDISCPILOT01",
            "VS",
            "CDISC001",
            57,
            "WEIGHT",
            "Weight",
            "",
            "173.0",
            "LB",
            "78.47",
            78.47,
            "kg",
            "",
            "",
            "",
            null,
            8,
            "WEEK 8",
            "TREATMENT",
            "2013-01-23",
            55
          ],
          [
            58,
            "CDISCPILOT01",
            "VS",
            "CDISC002",
            1,
            "DIABP",
            "Diastolic Blood Pressure",
            "STANDING",
            "60",
            "mmHg",
            "60",
            60,
            "mmHg",
            "",
            "",
            "",
            null,
            1,
            "SCREENING 1",
            "SCREENING",
            "2012-10-30",
            -16
          ],
          [
            59,
            "CDISCPILOT01",
            "VS",
            "CDISC002",
            2,
            "DIABP",
            "Diastolic Blood Pressure",
            "STANDING",
            "64",
            "mmHg",
            "64",
            64,
            "mmHg",
            "",
            "",
            "",
            null,
            2,
            "SCREENING 2",
            "SCREENING",
            "2012-11-14",
            -1
          ],
          [
            60,
            "CDISCPILOT01",
            "VS",
            "CDISC002",
            3,
            "DIABP",
            "Diastolic Blood Pressure",
            "STANDING",
            "64",
            "mmHg",
            "64",
            64,
            "mmHg",
            "",
            "",
            "Y",
            null,
            3,
            "BASELINE",
            "SCREENING",
            "2012-11-15",
            1
          ],
          [
            61,
            "CDISCPILOT01",
            "VS",
            "CDISC002",
            4,
            "DIABP",
            "Diastolic Blood Pressure",
            "STANDING",
            "58",
            "mmHg",
            "58",
            58,
            "mmHg",
            "",
            "",
            "",
            null,
            4,
            "WEEK 2",
            "TREATMENT",
            "2012-11-28",
            14
          ],
          [
            62,
            "CDISCPILOT01",
            "VS",
            "CDISC002",
            5,
            "DIABP",
            "Diastolic Blood Pressure",
            "STANDING",
            "55",
            "mmHg",
            "55",
            55,
            "mmHg",
            "",
            "",
            "",
            null,
            5,
            "WEEK 4",
            "TREATMENT",
            "2012-12-11",
            27
          ],
          [
            63,
            "CDISCPILOT01",
            "VS",
            "CDISC002",
            6,
            "DIABP",
            "Diastolic Blood Pressure",
            "STANDING",
            "60",
            "mmHg",
            "60",
            60,
            "mmHg",
            "",
            "",
            "",
            null,
            7,
            "WEEK 6",
            "TREATMENT",
            "2012-12-25",
            41
          ],
          [
            64,
            "CDISCPILOT01",
            "VS",
            "CDISC002",
            7,
            "DIABP",
            "Diastolic Blood Pressure",
            "SUPINE",
            "59",
            "mmHg",
            "59",
            59,
            "mmHg",
            "",
            "",
            "",
            1,
            8,
            "WEEK 8",
            "TREATMENT",
            "2013-01-08",
            55
          ],
          [
            65,
            "CDISCPILOT01",
            "VS",
            "CDISC002",
            8,
            "DIABP",
            "Diastolic Blood Pressure",
            "STANDING",
            "65",
            "mmHg",
            "65",
            65,
            "mmHg",
            "",
            "",
            "",
            2,
            8,
            "WEEK 8",
            "TREATMENT",
            "2013-01-08",
            55
          ],
          [
            66,
            "CDISCPILOT01",
            "VS",
            "CDISC002",
            9,
            "DIABP",
            "Diastolic Blood Pressure",
            "STANDING",
            "68",
            "mmHg",
            "68",
            68,
            "mmHg",
            "",
            "",
            "",
            3,
            8,
            "WEEK 8",
            "TREATMENT",
            "2013-01-08",
            55
          ],
          [
            67,
            "CDISCPILOT01",
            "VS",
            "CDISC002",
            10,
            "HEIGHT",
            "Height",
            "",
            "63.0",
            "in",
            "160.02",
            160.02,
            "cm",
            "",
            "",
            "",
            null,
            1,
            "SCREENING 1",
            "SCREENING",
            "2012-10-30",
            -16
          ],
          [
            68,
            "CDISCPILOT01",
            "VS",
            "CDISC002",
            11,
            "PULSE",
            "Pulse Rate",
            "STANDING",
            "55",
            "beats/min",
            "55",
            55,
            "beats/min",
            "",
            "",
            "",
            null,
            1,
            "SCREENING 1",
            "SCREENING",
            "2012-10-30",
            -16
          ],
          [
            69,
            "CDISCPILOT01",
            "VS",
            "CDISC002",
            12,
            "PULSE",
            "Pulse Rate",
            "STANDING",
            "66",
            "beats/min",
            "66",
            66,
            "beats/min",
            "",
            "",
            "",
            null,
            2,
            "SCREENING 2",
            "SCREENING",
            "2012-11-14",
            -1
          ],
          [
            70,
            "CDISCPILOT01",
            "VS",
            "CDISC002",
            13,
            "PULSE",
            "Pulse Rate",
            "STANDING",
            "57",
            "beats/min",
            "57",
            57,
            "beats/min",
            "",
            "",
            "Y",
            null,
            3,
            "BASELINE",
            "SCREENING",
            "2012-11-15",
            1
          ],
          [
            71,
            "CDISCPILOT01",
            "VS",
            "CDISC002",
            14,
            "PULSE",
            "Pulse Rate",
            "STANDING",
            "74",
            "beats/min",
            "74",
            74,
            "beats/min",
            "",
            "",
            "",
            null,
            4,
            "WEEK 2",
            "TREATMENT",
            "2012-11-28",
            14
          ],
          [
            72,
            "CDISCPILOT01",
            "VS",
            "CDISC002",
            15,
            "PULSE",
            "Pulse Rate",
            "STANDING",
            "66",
            "beats/min",
            "66",
            66,
            "beats/min",
            "",
            "",
            "",
            null,
            5,
            "WEEK 4",
            "TREATMENT",
            "2012-12-11",
            27
          ],
          [
            73,
            "CDISCPILOT01",
            "VS",
            "CDISC002",
            16,
            "PULSE",
            "Pulse Rate",
            "STANDING",
            "63",
            "beats/min",
            "63",
            63,
            "beats/min",
            "",
            "",
            "",
            null,
            7,
            "WEEK 6",
            "TREATMENT",
            "2012-12-25",
            41
          ],
          [
            74,
            "CDISCPILOT01",
            "VS",
            "CDISC002",
            17,
            "PULSE",
            "Pulse Rate",
            "SUPINE",
            "65",
            "beats/min",
            "65",
            65,
            "beats/min",
            "",
            "",
            "",
            1,
            8,
            "WEEK 8",
            "TREATMENT",
            "2013-01-08",
            55
          ],
          [
            75,
            "CDISCPILOT01",
            "VS",
            "CDISC002",
            18,
            "PULSE",
            "Pulse Rate",
            "STANDING",
            "75",
            "beats/min",
            "75",
            75,
            "beats/min",
            "",
            "",
            "",
            2,
            8,
            "WEEK 8",
            "TREATMENT",
            "2013-01-08",
            55
          ],
          [
            76,
            "CDISCPILOT01",
            "VS",
            "CDISC002",
            19,
            "PULSE",
            "Pulse Rate",
            "STANDING",
            "74",
            "beats/min",
            "74",
            74,
            "beats/min",
            "",
            "",
            "",
            3,
            8,
            "WEEK 8",
            "TREATMENT",
            "2013-01-08",
            55
          ],
          [
            77,
            "CDISCPILOT01",
            "VS",
            "CDISC002",
            20,
            "SYSBP",
            "Systolic Blood Pressure",
            "STANDING",
            "144",
            "mmHg",
            "144",
            144,
            "mmHg",
            "",
            "",
            "",
            null,
            1,
            "SCREENING 1",
            "SCREENING",
            "2012-10-30",
            -16
          ],
          [
            78,
            "CDISCPILOT01",
            "VS",
            "CDISC002",
            21,
            "SYSBP",
            "Systolic Blood Pressure",
            "STANDING",
            "137",
            "mmHg",
            "137",
            137,
            "mmHg",
            "",
            "",
            "",
            null,
            2,
            "SCREENING 2",
            "SCREENING",
            "2012-11-14",
            -1
          ],
          [
            79,
            "CDISCPILOT01",
            "VS",
            "CDISC002",
            22,
            "SYSBP",
            "Systolic Blood Pressure",
            "STANDING",
            "135",
            "mmHg",
            "135",
            135,
            "mmHg",
            "",
            "",
            "Y",
            null,
            3,
            "BASELINE",
            "SCREENING",
            "2012-11-15",
            1
          ],
          [
            80,
            "CDISCPILOT01",
            "VS",
            "CDISC002",
            23,
            "SYSBP",
            "Systolic Blood Pressure",
            "STANDING",
            "113",
            "mmHg",
            "113",
            113,
            "mmHg",
            "",
            "",
            "",
            null,
            4,
            "WEEK 2",
            "TREATMENT",
            "2012-11-28",
            14
          ],
          [
            81,
            "CDISCPILOT01",
            "VS",
            "CDISC002",
            24,
            "SYSBP",
            "Systolic Blood Pressure",
            "STANDING",
            "115",
            "mmHg",
            "115",
            115,
            "mmHg",
            "",
            "",
            "",
            null,
            5,
            "WEEK 4",
            "TREATMENT",
            "2012-12-11",
            27
          ],
          [
            82,
            "CDISCPILOT01",
            "VS",
            "CDISC002",
            25,
            "SYSBP",
            "Systolic Blood Pressure",
            "STANDING",
            "123",
            "mmHg",
            "123",
            123,
            "mmHg",
            "",
            "",
            "",
            null,
            7,
            "WEEK 6",
            "TREATMENT",
            "2012-12-25",
            41
          ],
          [
            83,
            "CDISCPILOT01",
            "VS",
            "CDISC002",
            26,
            "SYSBP",
            "Systolic Blood Pressure",
            "SUPINE",
            "156",
            "mmHg",
            "156",
            156,
            "mmHg",
            "",
            "",
            "",
            1,
            8,
            "WEEK 8",
            "TREATMENT",
            "2013-01-08",
            55
          ],
          [
            84,
            "CDISCPILOT01",
            "VS",
            "CDISC002",
            27,
            "SYSBP",
            "Systolic Blood Pressure",
            "STANDING",
            "114",
            "mmHg",
            "114",
            114,
            "mmHg",
            "",
            "",
            "",
            2,
            8,
            "WEEK 8",
            "TREATMENT",
            "2013-01-08",
            55
          ],
          [
            85,
            "CDISCPILOT01",
            "VS",
            "CDISC002",
            28,
            "SYSBP",
            "Systolic Blood Pressure",
            "STANDING",
            "127",
            "mmHg",
            "127",
            127,
            "mmHg",
            "",
            "",
            "",
            3,
            8,
            "WEEK 8",
            "TREATMENT",
            "2013-01-08",
            55
          ],
          [
            86,
            "CDISCPILOT01",
            "VS",
            "CDISC002",
            29,
            "TEMP",
            "Temperature",
            "",
            "99.6",
            "F",
            "37.56",
            37.56,
            "C",
            "",
            "ORAL CAVITY",
            "",
            null,
            1,
            "SCREENING 1",
            "SCREENING",
            "2012-10-30",
            -16
          ],
          [
            87,
            "CDISCPILOT01",
            "VS",
            "CDISC002",
            30,
            "TEMP",
            "Temperature",
            "",
            "98.7",
            "F",
            "37.06",
            37.06,
            "C",
            "",
            "ORAL CAVITY",
            "",
            null,
            2,
            "SCREENING 2",
            "SCREENING",
            "2012-11-14",
            -1
          ],
          [
            88,
            "CDISCPILOT01",
            "VS",
            "CDISC002",
            31,
            "TEMP",
            "Temperature",
            "",
            "97.8",
            "F",
            "36.56",
            36.56,
            "C",
            "",
            "ORAL CAVITY",
            "Y",
            null,
            3,
            "BASELINE",
            "SCREENING",
            "2012-11-15",
            1
          ],
          [
            89,
            "CDISCPILOT01",
            "VS",
            "CDISC002",
            32,
            "TEMP",
            "Temperature",
            "",
            "97.0",
            "F",
            "36.11",
            36.11,
            "C",
            "",
            "ORAL CAVITY",
            "",
            null,
            4,
            "WEEK 2",
            "TREATMENT",
            "2012-11-28",
            14
          ],
          [
            90,
            "CDISCPILOT01",
            "VS",
            "CDISC002",
            33,
            "TEMP",
            "Temperature",
            "",
            "97.8",
            "F",
            "36.56",
            36.56,
            "C",
            "",
            "ORAL CAVITY",
            "",
            null,
            5,
            "WEEK 4",
            "TREATMENT",
            "2012-12-11",
            27
          ],
          [
            91,
            "CDISCPILOT01",
            "VS",
            "CDISC002",
            34,
            "TEMP",
            "Temperature",
            "",
            "96.2",
            "F",
            "35.67",
            35.67,
            "C",
            "",
            "ORAL CAVITY",
            "",
            null,
            7,
            "WEEK 6",
            "TREATMENT",
            "2012-12-25",
            41
          ],
          [
            92,
            "CDISCPILOT01",
            "VS",
            "CDISC002",
            35,
            "TEMP",
            "Temperature",
            "",
            "97.2",
            "F",
            "36.22",
            36.22,
            "C",
            "",
            "ORAL CAVITY",
            "",
            null,
            8,
            "WEEK 8",
            "TREATMENT",
            "2013-01-08",
            55
          ],
          [
            93,
            "CDISCPILOT01",
            "VS",
            "CDISC002",
            36,
            "WEIGHT",
            "Weight",
            "",
            "101.0",
            "LB",
            "45.81",
            45.81,
            "kg",
            "",
            "",
            "",
            null,
            1,
            "SCREENING 1",
            "SCREENING",
            "2012-10-30",
            -16
          ],
          [
            94,
            "CDISCPILOT01",
            "VS",
            "CDISC002",
            37,
            "WEIGHT",
            "Weight",
            "",
            "100.0",
            "LB",
            "45.36",
            45.36,
            "kg",
            "",
            "",
            "Y",
            null,
            3,
            "BASELINE",
            "SCREENING",
            "2012-11-15",
            1
          ],
          [
            95,
            "CDISCPILOT01",
            "VS",
            "CDISC002",
            38,
            "WEIGHT",
            "Weight",
            "",
            "100.0",
            "LB",
            "45.36",
            45.36,
            "kg",
            "",
            "",
            "",
            null,
            4,
            "WEEK 2",
            "TREATMENT",
            "2012-11-28",
            14
          ],
          [
            96,
            "CDISCPILOT01",
            "VS",
            "CDISC002",
            39,
            "WEIGHT",
            "Weight",
            "",
            "101.0",
            "LB",
            "45.81",
            45.81,
            "kg",
            "",
            "",
            "",
            null,
            5,
            "WEEK 4",
            "TREATMENT",
            "2012-12-11",
            27
          ],
          [
            97,
            "CDISCPILOT01",
            "VS",
            "CDISC002",
            40,
            "WEIGHT",
            "Weight",
            "",
            "100.0",
            "LB",
            "45.36",
            45.36,
            "kg",
            "",
            "",
            "",
            null,
            7,
            "WEEK 6",
            "TREATMENT",
            "2012-12-25",
            41
          ],
          [
            98,
            "CDISCPILOT01",
            "VS",
            "CDISC002",
            41,
            "WEIGHT",
            "Weight",
            "",
            "95.0",
            "LB",
            "43.09",
            43.09,
            "kg",
            "",
            "",
            "",
            null,
            8,
            "WEEK 8",
            "TREATMENT",
            "2013-01-08",
            55
          ],
          [
            99,
            "CDISCPILOT01",
            "VS",
            "CDISC003",
            1,
            "DIABP",
            "Diastolic Blood Pressure",
            "SUPINE",
            "68",
            "mmHg",
            "68",
            68,
            "mmHg",
            "",
            "",
            "",
            1,
            1,
            "SCREENING 1",
            "SCREENING",
            "2013-08-20",
            -9
          ],
          [
            100,
            "CDISCPILOT01",
            "VS",
            "CDISC003",
            2,
            "DIABP",
            "Diastolic Blood Pressure",
            "STANDING",
            "79",
            "mmHg",
            "79",
            79,
            "mmHg",
            "",
            "",
            "",
            2,
            1,
            "SCREENING 1",
            "SCREENING",
            "2013-08-20",
            -9
          ],
          [
            101,
            "CDISCPILOT01",
            "VS",
            "CDISC003",
            3,
            "DIABP",
            "Diastolic Blood Pressure",
            "STANDING",
            "77",
            "mmHg",
            "77",
            77,
            "mmHg",
            "",
            "",
            "",
            3,
            1,
            "SCREENING 1",
            "SCREENING",
            "2013-08-20",
            -9
          ],
          [
            102,
            "CDISCPILOT01",
            "VS",
            "CDISC003",
            4,
            "DIABP",
            "Diastolic Blood Pressure",
            "SUPINE",
            "68",
            "mmHg",
            "68",
            68,
            "mmHg",
            "",
            "",
            "",
            1,
            2,
            "SCREENING 2",
            "SCREENING",
            "2013-08-27",
            -2
          ],
          [
            103,
            "CDISCPILOT01",
            "VS",
            "CDISC003",
            5,
            "DIABP",
            "Diastolic Blood Pressure",
            "STANDING",
            "75",
            "mmHg",
            "75",
            75,
            "mmHg",
            "",
            "",
            "",
            2,
            2,
            "SCREENING 2",
            "SCREENING",
            "2013-08-27",
            -2
          ],
          [
            104,
            "CDISCPILOT01",
            "VS",
            "CDISC003",
            6,
            "DIABP",
            "Diastolic Blood Pressure",
            "STANDING",
            "76",
            "mmHg",
            "76",
            76,
            "mmHg",
            "",
            "",
            "",
            3,
            2,
            "SCREENING 2",
            "SCREENING",
            "2013-08-27",
            -2
          ],
          [
            105,
            "CDISCPILOT01",
            "VS",
            "CDISC003",
            7,
            "DIABP",
            "Diastolic Blood Pressure",
            "SUPINE",
            "76",
            "mmHg",
            "76",
            76,
            "mmHg",
            "",
            "",
            "",
            1,
            3,
            "BASELINE",
            "SCREENING",
            "2013-08-29",
            1
          ],
          [
            106,
            "CDISCPILOT01",
            "VS",
            "CDISC003",
            8,
            "DIABP",
            "Diastolic Blood Pressure",
            "STANDING",
            "87",
            "mmHg",
            "87",
            87,
            "mmHg",
            "",
            "",
            "",
            2,
            3,
            "BASELINE",
            "SCREENING",
            "2013-08-29",
            1
          ],
          [
            107,
            "CDISCPILOT01",
            "VS",
            "CDISC003",
            9,
            "DIABP",
            "Diastolic Blood Pressure",
            "STANDING",
            "83",
            "mmHg",
            "83",
            83,
            "mmHg",
            "",
            "",
            "Y",
            3,
            3,
            "BASELINE",
            "SCREENING",
            "2013-08-29",
            1
          ],
          [
            108,
            "CDISCPILOT01",
            "VS",
            "CDISC003",
            10,
            "DIABP",
            "Diastolic Blood Pressure",
            "SUPINE",
            "71",
            "mmHg",
            "71",
            71,
            "mmHg",
            "",
            "",
            "",
            1,
            4,
            "WEEK 2",
            "TREATMENT",
            "2013-09-15",
            18
          ],
          [
            109,
            "CDISCPILOT01",
            "VS",
            "CDISC003",
            11,
            "DIABP",
            "Diastolic Blood Pressure",
            "STANDING",
            "79",
            "mmHg",
            "79",
            79,
            "mmHg",
            "",
            "",
            "",
            2,
            4,
            "WEEK 2",
            "TREATMENT",
            "2013-09-15",
            18
          ],
          [
            110,
            "CDISCPILOT01",
            "VS",
            "CDISC003",
            12,
            "DIABP",
            "Diastolic Blood Pressure",
            "STANDING",
            "84",
            "mmHg",
            "84",
            84,
            "mmHg",
            "",
            "",
            "",
            3,
            4,
            "WEEK 2",
            "TREATMENT",
            "2013-09-15",
            18
          ],
          [
            111,
            "CDISCPILOT01",
            "VS",
            "CDISC003",
            13,
            "DIABP",
            "Diastolic Blood Pressure",
            "SUPINE",
            "76",
            "mmHg",
            "76",
            76,
            "mmHg",
            "",
            "",
            "",
            1,
            5,
            "WEEK 4",
            "TREATMENT",
            "2013-09-24",
            27
          ],
          [
            112,
            "CDISCPILOT01",
            "VS",
            "CDISC003",
            14,
            "DIABP",
            "Diastolic Blood Pressure",
            "STANDING",
            "80",
            "mmHg",
            "80",
            80,
            "mmHg",
            "",
            "",
            "",
            2,
            5,
            "WEEK 4",
            "TREATMENT",
            "2013-09-24",
            27
          ],
          [
            113,
            "CDISCPILOT01",
            "VS",
            "CDISC003",
            15,
            "DIABP",
            "Diastolic Blood Pressure",
            "STANDING",
            "80",
            "mmHg",
            "80",
            80,
            "mmHg",
            "",
            "",
            "",
            3,
            5,
            "WEEK 4",
            "TREATMENT",
            "2013-09-24",
            27
          ],
          [
            114,
            "CDISCPILOT01",
            "VS",
            "CDISC003",
            16,
            "DIABP",
            "Diastolic Blood Pressure",
            "SUPINE",
            "65",
            "mmHg",
            "65",
            65,
            "mmHg",
            "",
            "",
            "",
            1,
            7,
            "WEEK 6",
            "TREATMENT",
            "2013-10-08",
            41
          ],
          [
            115,
            "CDISCPILOT01",
            "VS",
            "CDISC003",
            17,
            "DIABP",
            "Diastolic Blood Pressure",
            "STANDING",
            "70",
            "mmHg",
            "70",
            70,
            "mmHg",
            "",
            "",
            "",
            2,
            7,
            "WEEK 6",
            "TREATMENT",
            "2013-10-08",
            41
          ],
          [
            116,
            "CDISCPILOT01",
            "VS",
            "CDISC003",
            18,
            "DIABP",
            "Diastolic Blood Pressure",
            "STANDING",
            "76",
            "mmHg",
            "76",
            76,
            "mmHg",
            "",
            "",
            "",
            3,
            7,
            "WEEK 6",
            "TREATMENT",
            "2013-10-08",
            41
          ],
          [
            117,
            "CDISCPILOT01",
            "VS",
            "CDISC003",
            19,
            "DIABP",
            "Diastolic Blood Pressure",
            "SUPINE",
            "77",
            "mmHg",
            "77",
            77,
            "mmHg",
            "",
            "",
            "",
            1,
            8,
            "WEEK 8",
            "TREATMENT",
            "2013-10-22",
            55
          ],
          [
            118,
            "CDISCPILOT01",
            "VS",
            "CDISC003",
            20,
            "DIABP",
            "Diastolic Blood Pressure",
            "STANDING",
            "84",
            "mmHg",
            "84",
            84,
            "mmHg",
            "",
            "",
            "",
            2,
            8,
            "WEEK 8",
            "TREATMENT",
            "2013-10-22",
            55
          ],
          [
            119,
            "CDISCPILOT01",
            "VS",
            "CDISC003",
            21,
            "DIABP",
            "Diastolic Blood Pressure",
            "STANDING",
            "91",
            "mmHg",
            "91",
            91,
            "mmHg",
            "",
            "",
            "",
            3,
            8,
            "WEEK 8",
            "TREATMENT",
            "2013-10-22",
            55
          ],
          [
            120,
            "CDISCPILOT01",
            "VS",
            "CDISC003",
            22,
            "DIABP",
            "Diastolic Blood Pressure",
            "SUPINE",
            "76",
            "mmHg",
            "76",
            76,
            "mmHg",
            "",
            "",
            "",
            1,
            9,
            "WEEK 12",
            "TREATMENT",
            "2013-11-05",
            69
          ],
          [
            121,
            "CDISCPILOT01",
            "VS",
            "CDISC003",
            23,
            "DIABP",
            "Diastolic Blood Pressure",
            "STANDING",
            "81",
            "mmHg",
            "81",
            81,
            "mmHg",
            "",
            "",
            "",
            2,
            9,
            "WEEK 12",
            "TREATMENT",
            "2013-11-05",
            69
          ],
          [
            122,
            "CDISCPILOT01",
            "VS",
            "CDISC003",
            24,
            "DIABP",
            "Diastolic Blood Pressure",
            "STANDING",
            "81",
            "mmHg",
            "81",
            81,
            "mmHg",
            "",
            "",
            "",
            3,
            9,
            "WEEK 12",
            "TREATMENT",
            "2013-11-05",
            69
          ],
          [
            123,
            "CDISCPILOT01",
            "VS",
            "CDISC003",
            25,
            "DIABP",
            "Diastolic Blood Pressure",
            "SUPINE",
            "75",
            "mmHg",
            "75",
            75,
            "mmHg",
            "",
            "",
            "",
            1,
            201,
            "EARLY DISCONTINUATION RETRIEVAL",
            "TREATMENT",
            "2014-02-13",
            169
          ],
          [
            124,
            "CDISCPILOT01",
            "VS",
            "CDISC003",
            26,
            "DIABP",
            "Diastolic Blood Pressure",
            "STANDING",
            "83",
            "mmHg",
            "83",
            83,
            "mmHg",
            "",
            "",
            "",
            2,
            201,
            "EARLY DISCONTINUATION RETRIEVAL",
            "TREATMENT",
            "2014-02-13",
            169
          ],
          [
            125,
            "CDISCPILOT01",
            "VS",
            "CDISC003",
            27,
            "DIABP",
            "Diastolic Blood Pressure",
            "STANDING",
            "80",
            "mmHg",
            "80",
            80,
            "mmHg",
            "",
            "",
            "",
            3,
            201,
            "EARLY DISCONTINUATION RETRIEVAL",
            "TREATMENT",
            "2014-02-13",
            169
          ],
          [
            126,
            "CDISCPILOT01",
            "VS",
            "CDISC003",
            28,
            "HEIGHT",
            "Height",
            "",
            "70.0",
            "in",
            "177.8",
            177.8,
            "cm",
            "",
            "",
            "",
            null,
            1,
            "SCREENING 1",
            "SCREENING",
            "2013-08-20",
            -9
          ],
          [
            127,
            "CDISCPILOT01",
            "VS",
            "CDISC003",
            29,
            "PULSE",
            "Pulse Rate",
            "SUPINE",
            "58",
            "beats/min",
            "58",
            58,
            "beats/min",
            "",
            "",
            "",
            1,
            1,
            "SCREENING 1",
            "SCREENING",
            "2013-08-20",
            -9
          ],
          [
            128,
            "CDISCPILOT01",
            "VS",
            "CDISC003",
            30,
            "PULSE",
            "Pulse Rate",
            "STANDING",
            "68",
            "beats/min",
            "68",
            68,
            "beats/min",
            "",
            "",
            "",
            2,
            1,
            "SCREENING 1",
            "SCREENING",
            "2013-08-20",
            -9
          ],
          [
            129,
            "CDISCPILOT01",
            "VS",
            "CDISC003",
            31,
            "PULSE",
            "Pulse Rate",
            "STANDING",
            "64",
            "beats/min",
            "64",
            64,
            "beats/min",
            "",
            "",
            "",
            3,
            1,
            "SCREENING 1",
            "SCREENING",
            "2013-08-20",
            -9
          ],
          [
            130,
            "CDISCPILOT01",
            "VS",
            "CDISC003",
            32,
            "PULSE",
            "Pulse Rate",
            "SUPINE",
            "59",
            "beats/min",
            "59",
            59,
            "beats/min",
            "",
            "",
            "",
            1,
            2,
            "SCREENING 2",
            "SCREENING",
            "2013-08-27",
            -2
          ],
          [
            131,
            "CDISCPILOT01",
            "VS",
            "CDISC003",
            33,
            "PULSE",
            "Pulse Rate",
            "STANDING",
            "65",
            "beats/min",
            "65",
            65,
            "beats/min",
            "",
            "",
            "",
            2,
            2,
            "SCREENING 2",
            "SCREENING",
            "2013-08-27",
            -2
          ],
          [
            132,
            "CDISCPILOT01",
            "VS",
            "CDISC003",
            34,
            "PULSE",
            "Pulse Rate",
            "STANDING",
            "71",
            "beats/min",
            "71",
            71,
            "beats/min",
            "",
            "",
            "",
            3,
            2,
            "SCREENING 2",
            "SCREENING",
            "2013-08-27",
            -2
          ],
          [
            133,
            "CDISCPILOT01",
            "VS",
            "CDISC003",
            35,
            "PULSE",
            "Pulse Rate",
            "SUPINE",
            "54",
            "beats/min",
            "54",
            54,
            "beats/min",
            "",
            "",
            "",
            1,
            3,
            "BASELINE",
            "SCREENING",
            "2013-08-29",
            1
          ],
          [
            134,
            "CDISCPILOT01",
            "VS",
            "CDISC003",
            36,
            "PULSE",
            "Pulse Rate",
            "STANDING",
            "62",
            "beats/min",
            "62",
            62,
            "beats/min",
            "",
            "",
            "",
            2,
            3,
            "BASELINE",
            "SCREENING",
            "2013-08-29",
            1
          ],
          [
            135,
            "CDISCPILOT01",
            "VS",
            "CDISC003",
            37,
            "PULSE",
            "Pulse Rate",
            "STANDING",
            "61",
            "beats/min",
            "61",
            61,
            "beats/min",
            "",
            "",
            "Y",
            3,
            3,
            "BASELINE",
            "SCREENING",
            "2013-08-29",
            1
          ],
          [
            136,
            "CDISCPILOT01",
            "VS",
            "CDISC003",
            38,
            "PULSE",
            "Pulse Rate",
            "SUPINE",
            "72",
            "beats/min",
            "72",
            72,
            "beats/min",
            "",
            "",
            "",
            1,
            4,
            "WEEK 2",
            "TREATMENT",
            "2013-09-15",
            18
          ],
          [
            137,
            "CDISCPILOT01",
            "VS",
            "CDISC003",
            39,
            "PULSE",
            "Pulse Rate",
            "STANDING",
            "80",
            "beats/min",
            "80",
            80,
            "beats/min",
            "",
            "",
            "",
            2,
            4,
            "WEEK 2",
            "TREATMENT",
            "2013-09-15",
            18
          ],
          [
            138,
            "CDISCPILOT01",
            "VS",
            "CDISC003",
            40,
            "PULSE",
            "Pulse Rate",
            "STANDING",
            "82",
            "beats/min",
            "82",
            82,
            "beats/min",
            "",
            "",
            "",
            3,
            4,
            "WEEK 2",
            "TREATMENT",
            "2013-09-15",
            18
          ],
          [
            139,
            "CDISCPILOT01",
            "VS",
            "CDISC003",
            41,
            "PULSE",
            "Pulse Rate",
            "SUPINE",
            "52",
            "beats/min",
            "52",
            52,
            "beats/min",
            "",
            "",
            "",
            1,
            5,
            "WEEK 4",
            "TREATMENT",
            "2013-09-24",
            27
          ],
          [
            140,
            "CDISCPILOT01",
            "VS",
            "CDISC003",
            42,
            "PULSE",
            "Pulse Rate",
            "STANDING",
            "62",
            "beats/min",
            "62",
            62,
            "beats/min",
            "",
            "",
            "",
            2,
            5,
            "WEEK 4",
            "TREATMENT",
            "2013-09-24",
            27
          ],
          [
            141,
            "CDISCPILOT01",
            "VS",
            "CDISC003",
            43,
            "PULSE",
            "Pulse Rate",
            "STANDING",
            "66",
            "beats/min",
            "66",
            66,
            "beats/min",
            "",
            "",
            "",
            3,
            5,
            "WEEK 4",
            "TREATMENT",
            "2013-09-24",
            27
          ],
          [
            142,
            "CDISCPILOT01",
            "VS",
            "CDISC003",
            44,
            "PULSE",
            "Pulse Rate",
            "SUPINE",
            "79",
            "beats/min",
            "79",
            79,
            "beats/min",
            "",
            "",
            "",
            1,
            7,
            "WEEK 6",
            "TREATMENT",
            "2013-10-08",
            41
          ],
          [
            143,
            "CDISCPILOT01",
            "VS",
            "CDISC003",
            45,
            "PULSE",
            "Pulse Rate",
            "STANDING",
            "91",
            "beats/min",
            "91",
            91,
            "beats/min",
            "",
            "",
            "",
            2,
            7,
            "WEEK 6",
            "TREATMENT",
            "2013-10-08",
            41
          ],
          [
            144,
            "CDISCPILOT01",
            "VS",
            "CDISC003",
            46,
            "PULSE",
            "Pulse Rate",
            "STANDING",
            "86",
            "beats/min",
            "86",
            86,
            "beats/min",
            "",
            "",
            "",
            3,
            7,
            "WEEK 6",
            "TREATMENT",
            "2013-10-08",
            41
          ],
          [
            145,
            "CDISCPILOT01",
            "VS",
            "CDISC003",
            47,
            "PULSE",
            "Pulse Rate",
            "SUPINE",
            "62",
            "beats/min",
            "62",
            62,
            "beats/min",
            "",
            "",
            "",
            1,
            8,
            "WEEK 8",
            "TREATMENT",
            "2013-10-22",
            55
          ],
          [
            146,
            "CDISCPILOT01",
            "VS",
            "CDISC003",
            48,
            "PULSE",
            "Pulse Rate",
            "STANDING",
            "76",
            "beats/min",
            "76",
            76,
            "beats/min",
            "",
            "",
            "",
            2,
            8,
            "WEEK 8",
            "TREATMENT",
            "2013-10-22",
            55
          ],
          [
            147,
            "CDISCPILOT01",
            "VS",
            "CDISC003",
            49,
            "PULSE",
            "Pulse Rate",
            "STANDING",
            "77",
            "beats/min",
            "77",
            77,
            "beats/min",
            "",
            "",
            "",
            3,
            8,
            "WEEK 8",
            "TREATMENT",
            "2013-10-22",
            55
          ],
          [
            148,
            "CDISCPILOT01",
            "VS",
            "CDISC003",
            50,
            "PULSE",
            "Pulse Rate",
            "SUPINE",
            "53",
            "beats/min",
            "53",
            53,
            "beats/min",
            "",
            "",
            "",
            1,
            9,
            "WEEK 12",
            "TREATMENT",
            "2013-11-05",
            69
          ],
          [
            149,
            "CDISCPILOT01",
            "VS",
            "CDISC003",
            51,
            "PULSE",
            "Pulse Rate",
            "STANDING",
            "55",
            "beats/min",
            "55",
            55,
            "beats/min",
            "",
            "",
            "",
            2,
            9,
            "WEEK 12",
            "TREATMENT",
            "2013-11-05",
            69
          ],
          [
            150,
            "CDISCPILOT01",
            "VS",
            "CDISC003",
            52,
            "PULSE",
            "Pulse Rate",
            "STANDING",
            "56",
            "beats/min",
            "56",
            56,
            "beats/min",
            "",
            "",
            "",
            3,
            9,
            "WEEK 12",
            "TREATMENT",
            "2013-11-05",
            69
          ],
          [
            151,
            "CDISCPILOT01",
            "VS",
            "CDISC003",
            53,
            "PULSE",
            "Pulse Rate",
            "SUPINE",
            "50",
            "beats/min",
            "50",
            50,
            "beats/min",
            "",
            "",
            "",
            1,
            201,
            "EARLY DISCONTINUATION RETRIEVAL",
            "TREATMENT",
            "2014-02-13",
            169
          ],
          [
            152,
            "CDISCPILOT01",
            "VS",
            "CDISC003",
            54,
            "PULSE",
            "Pulse Rate",
            "STANDING",
            "57",
            "beats/min",
            "57",
            57,
            "beats/min",
            "",
            "",
            "",
            2,
            201,
            "EARLY DISCONTINUATION RETRIEVAL",
            "TREATMENT",
            "2014-02-13",
            169
          ],
          [
            153,
            "CDISCPILOT01",
            "VS",
            "CDISC003",
            55,
            "PULSE",
            "Pulse Rate",
            "STANDING",
            "60",
            "beats/min",
            "60",
            60,
            "beats/min",
            "",
            "",
            "",
            3,
            201,
            "EARLY DISCONTINUATION RETRIEVAL",
            "TREATMENT",
            "2014-02-13",
            169
          ],
          [
            154,
            "CDISCPILOT01",
            "VS",
            "CDISC003",
            56,
            "SYSBP",
            "Systolic Blood Pressure",
            "SUPINE",
            "115",
            "mmHg",
            "115",
            115,
            "mmHg",
            "",
            "",
            "",
            1,
            1,
            "SCREENING 1",
            "SCREENING",
            "2013-08-20",
            -9
          ],
          [
            155,
            "CDISCPILOT01",
            "VS",
            "CDISC003",
            57,
            "SYSBP",
            "Systolic Blood Pressure",
            "STANDING",
            "122",
            "mmHg",
            "122",
            122,
            "mmHg",
            "",
            "",
            "",
            2,
            1,
            "SCREENING 1",
            "SCREENING",
            "2013-08-20",
            -9
          ],
          [
            156,
            "CDISCPILOT01",
            "VS",
            "CDISC003",
            58,
            "SYSBP",
            "Systolic Blood Pressure",
            "STANDING",
            "123",
            "mmHg",
            "123",
            123,
            "mmHg",
            "",
            "",
            "",
            3,
            1,
            "SCREENING 1",
            "SCREENING",
            "2013-08-20",
            -9
          ],
          [
            157,
            "CDISCPILOT01",
            "VS",
            "CDISC003",
            59,
            "SYSBP",
            "Systolic Blood Pressure",
            "SUPINE",
            "121",
            "mmHg",
            "121",
            121,
            "mmHg",
            "",
            "",
            "",
            1,
            2,
            "SCREENING 2",
            "SCREENING",
            "2013-08-27",
            -2
          ],
          [
            158,
            "CDISCPILOT01",
            "VS",
            "CDISC003",
            60,
            "SYSBP",
            "Systolic Blood Pressure",
            "STANDING",
            "106",
            "mmHg",
            "106",
            106,
            "mmHg",
            "",
            "",
            "",
            2,
            2,
            "SCREENING 2",
            "SCREENING",
            "2013-08-27",
            -2
          ],
          [
            159,
            "CDISCPILOT01",
            "VS",
            "CDISC003",
            61,
            "SYSBP",
            "Systolic Blood Pressure",
            "STANDING",
            "115",
            "mmHg",
            "115",
            115,
            "mmHg",
            "",
            "",
            "",
            3,
            2,
            "SCREENING 2",
            "SCREENING",
            "2013-08-27",
            -2
          ],
          [
            160,
            "CDISCPILOT01",
            "VS",
            "CDISC003",
            62,
            "SYSBP",
            "Systolic Blood Pressure",
            "SUPINE",
            "131",
            "mmHg",
            "131",
            131,
            "mmHg",
            "",
            "",
            "",
            1,
            3,
            "BASELINE",
            "SCREENING",
            "2013-08-29",
            1
          ],
          [
            161,
            "CDISCPILOT01",
            "VS",
            "CDISC003",
            63,
            "SYSBP",
            "Systolic Blood Pressure",
            "STANDING",
            "137",
            "mmHg",
            "137",
            137,
            "mmHg",
            "",
            "",
            "",
            2,
            3,
            "BASELINE",
            "SCREENING",
            "2013-08-29",
            1
          ],
          [
            162,
            "CDISCPILOT01",
            "VS",
            "CDISC003",
            64,
            "SYSBP",
            "Systolic Blood Pressure",
            "STANDING",
            "136",
            "mmHg",
            "136",
            136,
            "mmHg",
            "",
            "",
            "Y",
            3,
            3,
            "BASELINE",
            "SCREENING",
            "2013-08-29",
            1
          ],
          [
            163,
            "CDISCPILOT01",
            "VS",
            "CDISC003",
            65,
            "SYSBP",
            "Systolic Blood Pressure",
            "SUPINE",
            "114",
            "mmHg",
            "114",
            114,
            "mmHg",
            "",
            "",
            "",
            1,
            4,
            "WEEK 2",
            "TREATMENT",
            "2013-09-15",
            18
          ],
          [
            164,
            "CDISCPILOT01",
            "VS",
            "CDISC003",
            66,
            "SYSBP",
            "Systolic Blood Pressure",
            "STANDING",
            "114",
            "mmHg",
            "114",
            114,
            "mmHg",
            "",
            "",
            "",
            2,
            4,
            "WEEK 2",
            "TREATMENT",
            "2013-09-15",
            18
          ],
          [
            165,
            "CDISCPILOT01",
            "VS",
            "CDISC003",
            67,
            "SYSBP",
            "Systolic Blood Pressure",
            "STANDING",
            "123",
            "mmHg",
            "123",
            123,
            "mmHg",
            "",
            "",
            "",
            3,
            4,
            "WEEK 2",
            "TREATMENT",
            "2013-09-15",
            18
          ],
          [
            166,
            "CDISCPILOT01",
            "VS",
            "CDISC003",
            68,
            "SYSBP",
            "Systolic Blood Pressure",
            "SUPINE",
            "123",
            "mmHg",
            "123",
            123,
            "mmHg",
            "",
            "",
            "",
            1,
            5,
            "WEEK 4",
            "TREATMENT",
            "2013-09-24",
            27
          ],
          [
            167,
            "CDISCPILOT01",
            "VS",
            "CDISC003",
            69,
            "SYSBP",
            "Systolic Blood Pressure",
            "STANDING",
            "115",
            "mmHg",
            "115",
            115,
            "mmHg",
            "",
            "",
            "",
            2,
            5,
            "WEEK 4",
            "TREATMENT",
            "2013-09-24",
            27
          ],
          [
            168,
            "CDISCPILOT01",
            "VS",
            "CDISC003",
            70,
            "SYSBP",
            "Systolic Blood Pressure",
            "STANDING",
            "131",
            "mmHg",
            "131",
            131,
            "mmHg",
            "",
            "",
            "",
            3,
            5,
            "WEEK 4",
            "TREATMENT",
            "2013-09-24",
            27
          ],
          [
            169,
            "CDISCPILOT01",
            "VS",
            "CDISC003",
            71,
            "SYSBP",
            "Systolic Blood Pressure",
            "SUPINE",
            "108",
            "mmHg",
            "108",
            108,
            "mmHg",
            "",
            "",
            "",
            1,
            7,
            "WEEK 6",
            "TREATMENT",
            "2013-10-08",
            41
          ],
          [
            170,
            "CDISCPILOT01",
            "VS",
            "CDISC003",
            72,
            "SYSBP",
            "Systolic Blood Pressure",
            "STANDING",
            "115",
            "mmHg",
            "115",
            115,
            "mmHg",
            "",
            "",
            "",
            2,
            7,
            "WEEK 6",
            "TREATMENT",
            "2013-10-08",
            41
          ],
          [
            171,
            "CDISCPILOT01",
            "VS",
            "CDISC003",
            73,
            "SYSBP",
            "Systolic Blood Pressure",
            "STANDING",
            "123",
            "mmHg",
            "123",
            123,
            "mmHg",
            "",
            "",
            "",
            3,
            7,
            "WEEK 6",
            "TREATMENT",
            "2013-10-08",
            41
          ],
          [
            172,
            "CDISCPILOT01",
            "VS",
            "CDISC003",
            74,
            "SYSBP",
            "Systolic Blood Pressure",
            "SUPINE",
            "115",
            "mmHg",
            "115",
            115,
            "mmHg",
            "",
            "",
            "",
            1,
            8,
            "WEEK 8",
            "TREATMENT",
            "2013-10-22",
            55
          ],
          [
            173,
            "CDISCPILOT01",
            "VS",
            "CDISC003",
            75,
            "SYSBP",
            "Systolic Blood Pressure",
            "STANDING",
            "115",
            "mmHg",
            "115",
            115,
            "mmHg",
            "",
            "",
            "",
            2,
            8,
            "WEEK 8",
            "TREATMENT",
            "2013-10-22",
            55
          ],
          [
            174,
            "CDISCPILOT01",
            "VS",
            "CDISC003",
            76,
            "SYSBP",
            "Systolic Blood Pressure",
            "STANDING",
            "114",
            "mmHg",
            "114",
            114,
            "mmHg",
            "",
            "",
            "",
            3,
            8,
            "WEEK 8",
            "TREATMENT",
            "2013-10-22",
            55
          ],
          [
            175,
            "CDISCPILOT01",
            "VS",
            "CDISC003",
            77,
            "SYSBP",
            "Systolic Blood Pressure",
            "SUPINE",
            "115",
            "mmHg",
            "115",
            115,
            "mmHg",
            "",
            "",
            "",
            1,
            9,
            "WEEK 12",
            "TREATMENT",
            "2013-11-05",
            69
          ],
          [
            176,
            "CDISCPILOT01",
            "VS",
            "CDISC003",
            78,
            "SYSBP",
            "Systolic Blood Pressure",
            "STANDING",
            "124",
            "mmHg",
            "124",
            124,
            "mmHg",
            "",
            "",
            "",
            2,
            9,
            "WEEK 12",
            "TREATMENT",
            "2013-11-05",
            69
          ],
          [
            177,
            "CDISCPILOT01",
            "VS",
            "CDISC003",
            79,
            "SYSBP",
            "Systolic Blood Pressure",
            "STANDING",
            "131",
            "mmHg",
            "131",
            131,
            "mmHg",
            "",
            "",
            "",
            3,
            9,
            "WEEK 12",
            "TREATMENT",
            "2013-11-05",
            69
          ],
          [
            178,
            "CDISCPILOT01",
            "VS",
            "CDISC003",
            80,
            "SYSBP",
            "Systolic Blood Pressure",
            "SUPINE",
            "122",
            "mmHg",
            "122",
            122,
            "mmHg",
            "",
            "",
            "",
            1,
            201,
            "EARLY DISCONTINUATION RETRIEVAL",
            "TREATMENT",
            "2014-02-13",
            169
          ],
          [
            179,
            "CDISCPILOT01",
            "VS",
            "CDISC003",
            81,
            "SYSBP",
            "Systolic Blood Pressure",
            "STANDING",
            "117",
            "mmHg",
            "117",
            117,
            "mmHg",
            "",
            "",
            "",
            2,
            201,
            "EARLY DISCONTINUATION RETRIEVAL",
            "TREATMENT",
            "2014-02-13",
            169
          ],
          [
            180,
            "CDISCPILOT01",
            "VS",
            "CDISC003",
            82,
            "SYSBP",
            "Systolic Blood Pressure",
            "STANDING",
            "131",
            "mmHg",
            "131",
            131,
            "mmHg",
            "",
            "",
            "",
            3,
            201,
            "EARLY DISCONTINUATION RETRIEVAL",
            "TREATMENT",
            "2014-02-13",
            169
          ],
          [
            181,
            "CDISCPILOT01",
            "VS",
            "CDISC003",
            83,
            "TEMP",
            "Temperature",
            "",
            "97.7",
            "F",
            "36.5",
            36.5,
            "C",
            "",
            "ORAL CAVITY",
            "",
            null,
            1,
            "SCREENING 1",
            "SCREENING",
            "2013-08-20",
            -9
          ],
          [
            182,
            "CDISCPILOT01",
            "VS",
            "CDISC003",
            84,
            "TEMP",
            "Temperature",
            "",
            "98.9",
            "F",
            "37.17",
            37.17,
            "C",
            "",
            "ORAL CAVITY",
            "",
            null,
            2,
            "SCREENING 2",
            "SCREENING",
            "2013-08-27",
            -2
          ],
          [
            183,
            "CDISCPILOT01",
            "VS",
            "CDISC003",
            85,
            "TEMP",
            "Temperature",
            "",
            "96.3",
            "F",
            "35.72",
            35.72,
            "C",
            "",
            "ORAL CAVITY",
            "Y",
            null,
            3,
            "BASELINE",
            "SCREENING",
            "2013-08-29",
            1
          ],
          [
            184,
            "CDISCPILOT01",
            "VS",
            "CDISC003",
            86,
            "TEMP",
            "Temperature",
            "",
            "98.3",
            "F",
            "36.83",
            36.83,
            "C",
            "",
            "ORAL CAVITY",
            "",
            null,
            4,
            "WEEK 2",
            "TREATMENT",
            "2013-09-15",
            18
          ],
          [
            185,
            "CDISCPILOT01",
            "VS",
            "CDISC003",
            87,
            "TEMP",
            "Temperature",
            "",
            "97.1",
            "F",
            "36.17",
            36.17,
            "C",
            "",
            "ORAL CAVITY",
            "",
            null,
            5,
            "WEEK 4",
            "TREATMENT",
            "2013-09-24",
            27
          ],
          [
            186,
            "CDISCPILOT01",
            "VS",
            "CDISC003",
            88,
            "TEMP",
            "Temperature",
            "",
            "97.9",
            "F",
            "36.61",
            36.61,
            "C",
            "",
            "ORAL CAVITY",
            "",
            null,
            7,
            "WEEK 6",
            "TREATMENT",
            "2013-10-08",
            41
          ],
          [
            187,
            "CDISCPILOT01",
            "VS",
            "CDISC003",
            89,
            "TEMP",
            "Temperature",
            "",
            "98.1",
            "F",
            "36.72",
            36.72,
            "C",
            "",
            "ORAL CAVITY",
            "",
            null,
            8,
            "WEEK 8",
            "TREATMENT",
            "2013-10-22",
            55
          ],
          [
            188,
            "CDISCPILOT01",
            "VS",
            "CDISC003",
            90,
            "TEMP",
            "Temperature",
            "",
            "97.9",
            "F",
            "36.61",
            36.61,
            "C",
            "",
            "ORAL CAVITY",
            "",
            null,
            9,
            "WEEK 12",
            "TREATMENT",
            "2013-11-05",
            69
          ],
          [
            189,
            "CDISCPILOT01",
            "VS",
            "CDISC003",
            91,
            "TEMP",
            "Temperature",
            "",
            "97.4",
            "F",
            "36.33",
            36.33,
            "C",
            "",
            "ORAL CAVITY",
            "",
            null,
            201,
            "EARLY DISCONTINUATION RETRIEVAL",
            "TREATMENT",
            "2014-02-13",
            169
          ],
          [
            190,
            "CDISCPILOT01",
            "VS",
            "CDISC003",
            92,
            "WEIGHT",
            "Weight",
            "",
            "179.0",
            "LB",
            "81.19",
            81.19,
            "kg",
            "",
            "",
            "",
            null,
            1,
            "SCREENING 1",
            "SCREENING",
            "2013-08-20",
            -9
          ],
          [
            191,
            "CDISCPILOT01",
            "VS",
            "CDISC003",
            93,
            "WEIGHT",
            "Weight",
            "",
            "181.0",
            "LB",
            "82.1",
            82.1,
            "kg",
            "",
            "",
            "Y",
            null,
            3,
            "BASELINE",
            "SCREENING",
            "2013-08-29",
            1
          ],
          [
            192,
            "CDISCPILOT01",
            "VS",
            "CDISC003",
            94,
            "WEIGHT",
            "Weight",
            "",
            "179.0",
            "LB",
            "81.19",
            81.19,
            "kg",
            "",
            "",
            "",
            null,
            4,
            "WEEK 2",
            "TREATMENT",
            "2013-09-15",
            18
          ],
          [
            193,
            "CDISCPILOT01",
            "VS",
            "CDISC003",
            95,
            "WEIGHT",
            "Weight",
            "",
            "182.0",
            "LB",
            "82.56",
            82.56,
            "kg",
            "",
            "",
            "",
            null,
            5,
            "WEEK 4",
            "TREATMENT",
            "2013-09-24",
            27
          ],
          [
            194,
            "CDISCPILOT01",
            "VS",
            "CDISC003",
            96,
            "WEIGHT",
            "Weight",
            "",
            "178.0",
            "LB",
            "80.74",
            80.74,
            "kg",
            "",
            "",
            "",
            null,
            7,
            "WEEK 6",
            "TREATMENT",
            "2013-10-08",
            41
          ],
          [
            195,
            "CDISCPILOT01",
            "VS",
            "CDISC003",
            97,
            "WEIGHT",
            "Weight",
            "",
            "181.0",
            "LB",
            "82.1",
            82.1,
            "kg",
            "",
            "",
            "",
            null,
            8,
            "WEEK 8",
            "TREATMENT",
            "2013-10-22",
            55
          ],
          [
            196,
            "CDISCPILOT01",
            "VS",
            "CDISC003",
            98,
            "WEIGHT",
            "Weight",
            "",
            "181.0",
            "LB",
            "82.1",
            82.1,
            "kg",
            "",
            "",
            "",
            null,
            9,
            "WEEK 12",
            "TREATMENT",
            "2013-11-05",
            69
          ],
          [
            197,
            "CDISCPILOT01",
            "VS",
            "CDISC004",
            1,
            "DIABP",
            "Diastolic Blood Pressure",
            "SUPINE",
            "47",
            "mmHg",
            "47",
            47,
            "mmHg",
            "",
            "",
            "",
            1,
            1,
            "SCREENING 1",
            "SCREENING",
            "2013-10-01",
            -7
          ],
          [
            198,
            "CDISCPILOT01",
            "VS",
            "CDISC004",
            2,
            "DIABP",
            "Diastolic Blood Pressure",
            "STANDING",
            "55",
            "mmHg",
            "55",
            55,
            "mmHg",
            "",
            "",
            "",
            2,
            1,
            "SCREENING 1",
            "SCREENING",
            "2013-10-01",
            -7
          ],
          [
            199,
            "CDISCPILOT01",
            "VS",
            "CDISC004",
            3,
            "DIABP",
            "Diastolic Blood Pressure",
            "STANDING",
            "56",
            "mmHg",
            "56",
            56,
            "mmHg",
            "",
            "",
            "",
            3,
            1,
            "SCREENING 1",
            "SCREENING",
            "2013-10-01",
            -7
          ],
          [
            200,
            "CDISCPILOT01",
            "VS",
            "CDISC004",
            4,
            "DIABP",
            "Diastolic Blood Pressure",
            "SUPINE",
            "56",
            "mmHg",
            "56",
            56,
            "mmHg",
            "",
            "",
            "",
            1,
            2,
            "SCREENING 2",
            "SCREENING",
            "2013-10-06",
            -2
          ],
          [
            201,
            "CDISCPILOT01",
            "VS",
            "CDISC004",
            5,
            "DIABP",
            "Diastolic Blood Pressure",
            "STANDING",
            "56",
            "mmHg",
            "56",
            56,
            "mmHg",
            "",
            "",
            "",
            2,
            2,
            "SCREENING 2",
            "SCREENING",
            "2013-10-06",
            -2
          ],
          [
            202,
            "CDISCPILOT01",
            "VS",
            "CDISC004",
            6,
            "DIABP",
            "Diastolic Blood Pressure",
            "STANDING",
            "57",
            "mmHg",
            "57",
            57,
            "mmHg",
            "",
            "",
            "",
            3,
            2,
            "SCREENING 2",
            "SCREENING",
            "2013-10-06",
            -2
          ],
          [
            203,
            "CDISCPILOT01",
            "VS",
            "CDISC004",
            7,
            "DIABP",
            "Diastolic Blood Pressure",
            "SUPINE",
            "58",
            "mmHg",
            "58",
            58,
            "mmHg",
            "",
            "",
            "",
            1,
            3,
            "BASELINE",
            "SCREENING",
            "2013-10-08",
            1
          ],
          [
            204,
            "CDISCPILOT01",
            "VS",
            "CDISC004",
            8,
            "DIABP",
            "Diastolic Blood Pressure",
            "STANDING",
            "52",
            "mmHg",
            "52",
            52,
            "mmHg",
            "",
            "",
            "",
            2,
            3,
            "BASELINE",
            "SCREENING",
            "2013-10-08",
            1
          ],
          [
            205,
            "CDISCPILOT01",
            "VS",
            "CDISC004",
            9,
            "DIABP",
            "Diastolic Blood Pressure",
            "STANDING",
            "54",
            "mmHg",
            "54",
            54,
            "mmHg",
            "",
            "",
            "Y",
            3,
            3,
            "BASELINE",
            "SCREENING",
            "2013-10-08",
            1
          ],
          [
            206,
            "CDISCPILOT01",
            "VS",
            "CDISC004",
            10,
            "DIABP",
            "Diastolic Blood Pressure",
            "SUPINE",
            "52",
            "mmHg",
            "52",
            52,
            "mmHg",
            "",
            "",
            "",
            1,
            4,
            "WEEK 2",
            "TREATMENT",
            "2013-10-24",
            17
          ],
          [
            207,
            "CDISCPILOT01",
            "VS",
            "CDISC004",
            11,
            "DIABP",
            "Diastolic Blood Pressure",
            "STANDING",
            "56",
            "mmHg",
            "56",
            56,
            "mmHg",
            "",
            "",
            "",
            2,
            4,
            "WEEK 2",
            "TREATMENT",
            "2013-10-24",
            17
          ],
          [
            208,
            "CDISCPILOT01",
            "VS",
            "CDISC004",
            12,
            "DIABP",
            "Diastolic Blood Pressure",
            "STANDING",
            "58",
            "mmHg",
            "58",
            58,
            "mmHg",
            "",
            "",
            "",
            3,
            4,
            "WEEK 2",
            "TREATMENT",
            "2013-10-24",
            17
          ],
          [
            209,
            "CDISCPILOT01",
            "VS",
            "CDISC004",
            13,
            "DIABP",
            "Diastolic Blood Pressure",
            "SUPINE",
            "41",
            "mmHg",
            "41",
            41,
            "mmHg",
            "",
            "",
            "",
            1,
            5,
            "WEEK 4",
            "TREATMENT",
            "2013-11-08",
            32
          ],
          [
            210,
            "CDISCPILOT01",
            "VS",
            "CDISC004",
            14,
            "DIABP",
            "Diastolic Blood Pressure",
            "STANDING",
            "39",
            "mmHg",
            "39",
            39,
            "mmHg",
            "",
            "",
            "",
            2,
            5,
            "WEEK 4",
            "TREATMENT",
            "2013-11-08",
            32
          ],
          [
            211,
            "CDISCPILOT01",
            "VS",
            "CDISC004",
            15,
            "DIABP",
            "Diastolic Blood Pressure",
            "STANDING",
            "50",
            "mmHg",
            "50",
            50,
            "mmHg",
            "",
            "",
            "",
            3,
            5,
            "WEEK 4",
            "TREATMENT",
            "2013-11-08",
            32
          ],
          [
            212,
            "CDISCPILOT01",
            "VS",
            "CDISC004",
            16,
            "DIABP",
            "Diastolic Blood Pressure",
            "SUPINE",
            "48",
            "mmHg",
            "48",
            48,
            "mmHg",
            "",
            "",
            "",
            1,
            7,
            "WEEK 6",
            "TREATMENT",
            "2013-11-19",
            43
          ],
          [
            213,
            "CDISCPILOT01",
            "VS",
            "CDISC004",
            17,
            "DIABP",
            "Diastolic Blood Pressure",
            "STANDING",
            "52",
            "mmHg",
            "52",
            52,
            "mmHg",
            "",
            "",
            "",
            2,
            7,
            "WEEK 6",
            "TREATMENT",
            "2013-11-19",
            43
          ],
          [
            214,
            "CDISCPILOT01",
            "VS",
            "CDISC004",
            18,
            "DIABP",
            "Diastolic Blood Pressure",
            "STANDING",
            "54",
            "mmHg",
            "54",
            54,
            "mmHg",
            "",
            "",
            "",
            3,
            7,
            "WEEK 6",
            "TREATMENT",
            "2013-11-19",
            43
          ],
          [
            215,
            "CDISCPILOT01",
            "VS",
            "CDISC004",
            19,
            "DIABP",
            "Diastolic Blood Pressure",
            "SUPINE",
            "49",
            "mmHg",
            "49",
            49,
            "mmHg",
            "",
            "",
            "",
            1,
            8,
            "WEEK 8",
            "TREATMENT",
            "2013-12-03",
            57
          ],
          [
            216,
            "CDISCPILOT01",
            "VS",
            "CDISC004",
            20,
            "DIABP",
            "Diastolic Blood Pressure",
            "STANDING",
            "52",
            "mmHg",
            "52",
            52,
            "mmHg",
            "",
            "",
            "",
            2,
            8,
            "WEEK 8",
            "TREATMENT",
            "2013-12-03",
            57
          ],
          [
            217,
            "CDISCPILOT01",
            "VS",
            "CDISC004",
            21,
            "DIABP",
            "Diastolic Blood Pressure",
            "STANDING",
            "57",
            "mmHg",
            "57",
            57,
            "mmHg",
            "",
            "",
            "",
            3,
            8,
            "WEEK 8",
            "TREATMENT",
            "2013-12-03",
            57
          ],
          [
            218,
            "CDISCPILOT01",
            "VS",
            "CDISC004",
            22,
            "DIABP",
            "Diastolic Blood Pressure",
            "SUPINE",
            "55",
            "mmHg",
            "55",
            55,
            "mmHg",
            "",
            "",
            "",
            1,
            9,
            "WEEK 12",
            "TREATMENT",
            "2013-12-31",
            85
          ],
          [
            219,
            "CDISCPILOT01",
            "VS",
            "CDISC004",
            23,
            "DIABP",
            "Diastolic Blood Pressure",
            "STANDING",
            "49",
            "mmHg",
            "49",
            49,
            "mmHg",
            "",
            "",
            "",
            2,
            9,
            "WEEK 12",
            "TREATMENT",
            "2013-12-31",
            85
          ],
          [
            220,
            "CDISCPILOT01",
            "VS",
            "CDISC004",
            24,
            "DIABP",
            "Diastolic Blood Pressure",
            "STANDING",
            "57",
            "mmHg",
            "57",
            57,
            "mmHg",
            "",
            "",
            "",
            3,
            9,
            "WEEK 12",
            "TREATMENT",
            "2013-12-31",
            85
          ],
          [
            221,
            "CDISCPILOT01",
            "VS",
            "CDISC004",
            25,
            "DIABP",
            "Diastolic Blood Pressure",
            "SUPINE",
            "52",
            "mmHg",
            "52",
            52,
            "mmHg",
            "",
            "",
            "",
            1,
            10,
            "WEEK 16",
            "TREATMENT",
            "2014-01-27",
            112
          ],
          [
            222,
            "CDISCPILOT01",
            "VS",
            "CDISC004",
            26,
            "DIABP",
            "Diastolic Blood Pressure",
            "STANDING",
            "49",
            "mmHg",
            "49",
            49,
            "mmHg",
            "",
            "",
            "",
            2,
            10,
            "WEEK 16",
            "TREATMENT",
            "2014-01-27",
            112
          ],
          [
            223,
            "CDISCPILOT01",
            "VS",
            "CDISC004",
            27,
            "DIABP",
            "Diastolic Blood Pressure",
            "STANDING",
            "55",
            "mmHg",
            "55",
            55,
            "mmHg",
            "",
            "",
            "",
            3,
            10,
            "WEEK 16",
            "TREATMENT",
            "2014-01-27",
            112
          ],
          [
            224,
            "CDISCPILOT01",
            "VS",
            "CDISC004",
            28,
            "DIABP",
            "Diastolic Blood Pressure",
            "SUPINE",
            "54",
            "mmHg",
            "54",
            54,
            "mmHg",
            "",
            "",
            "",
            1,
            11,
            "WEEK 20",
            "TREATMENT",
            "2014-02-25",
            141
          ],
          [
            225,
            "CDISCPILOT01",
            "VS",
            "CDISC004",
            29,
            "DIABP",
            "Diastolic Blood Pressure",
            "STANDING",
            "48",
            "mmHg",
            "48",
            48,
            "mmHg",
            "",
            "",
            "",
            2,
            11,
            "WEEK 20",
            "TREATMENT",
            "2014-02-25",
            141
          ],
          [
            226,
            "CDISCPILOT01",
            "VS",
            "CDISC004",
            30,
            "DIABP",
            "Diastolic Blood Pressure",
            "STANDING",
            "56",
            "mmHg",
            "56",
            56,
            "mmHg",
            "",
            "",
            "",
            3,
            11,
            "WEEK 20",
            "TREATMENT",
            "2014-02-25",
            141
          ],
          [
            227,
            "CDISCPILOT01",
            "VS",
            "CDISC004",
            31,
            "DIABP",
            "Diastolic Blood Pressure",
            "SUPINE",
            "48",
            "mmHg",
            "48",
            48,
            "mmHg",
            "",
            "",
            "",
            1,
            12,
            "WEEK 24",
            "TREATMENT",
            "2014-03-18",
            162
          ],
          [
            228,
            "CDISCPILOT01",
            "VS",
            "CDISC004",
            32,
            "DIABP",
            "Diastolic Blood Pressure",
            "STANDING",
            "56",
            "mmHg",
            "56",
            56,
            "mmHg",
            "",
            "",
            "",
            2,
            12,
            "WEEK 24",
            "TREATMENT",
            "2014-03-18",
            162
          ],
          [
            229,
            "CDISCPILOT01",
            "VS",
            "CDISC004",
            33,
            "DIABP",
            "Diastolic Blood Pressure",
            "STANDING",
            "51",
            "mmHg",
            "51",
            51,
            "mmHg",
            "",
            "",
            "",
            3,
            12,
            "WEEK 24",
            "TREATMENT",
            "2014-03-18",
            162
          ],
          [
            230,
            "CDISCPILOT01",
            "VS",
            "CDISC004",
            34,
            "HEIGHT",
            "Height",
            "",
            "68.5",
            "in",
            "173.99",
            173.99,
            "cm",
            "",
            "",
            "",
            null,
            1,
            "SCREENING 1",
            "SCREENING",
            "2013-10-01",
            -7
          ],
          [
            231,
            "CDISCPILOT01",
            "VS",
            "CDISC004",
            35,
            "PULSE",
            "Pulse Rate",
            "SUPINE",
            "62",
            "beats/min",
            "62",
            62,
            "beats/min",
            "",
            "",
            "",
            1,
            1,
            "SCREENING 1",
            "SCREENING",
            "2013-10-01",
            -7
          ],
          [
            232,
            "CDISCPILOT01",
            "VS",
            "CDISC004",
            36,
            "PULSE",
            "Pulse Rate",
            "STANDING",
            "74",
            "beats/min",
            "74",
            74,
            "beats/min",
            "",
            "",
            "",
            2,
            1,
            "SCREENING 1",
            "SCREENING",
            "2013-10-01",
            -7
          ],
          [
            233,
            "CDISCPILOT01",
            "VS",
            "CDISC004",
            37,
            "PULSE",
            "Pulse Rate",
            "STANDING",
            "80",
            "beats/min",
            "80",
            80,
            "beats/min",
            "",
            "",
            "",
            3,
            1,
            "SCREENING 1",
            "SCREENING",
            "2013-10-01",
            -7
          ],
          [
            234,
            "CDISCPILOT01",
            "VS",
            "CDISC004",
            38,
            "PULSE",
            "Pulse Rate",
            "SUPINE",
            "61",
            "beats/min",
            "61",
            61,
            "beats/min",
            "",
            "",
            "",
            1,
            2,
            "SCREENING 2",
            "SCREENING",
            "2013-10-06",
            -2
          ],
          [
            235,
            "CDISCPILOT01",
            "VS",
            "CDISC004",
            39,
            "PULSE",
            "Pulse Rate",
            "STANDING",
            "71",
            "beats/min",
            "71",
            71,
            "beats/min",
            "",
            "",
            "",
            2,
            2,
            "SCREENING 2",
            "SCREENING",
            "2013-10-06",
            -2
          ],
          [
            236,
            "CDISCPILOT01",
            "VS",
            "CDISC004",
            40,
            "PULSE",
            "Pulse Rate",
            "STANDING",
            "65",
            "beats/min",
            "65",
            65,
            "beats/min",
            "",
            "",
            "",
            3,
            2,
            "SCREENING 2",
            "SCREENING",
            "2013-10-06",
            -2
          ],
          [
            237,
            "CDISCPILOT01",
            "VS",
            "CDISC004",
            41,
            "PULSE",
            "Pulse Rate",
            "SUPINE",
            "61",
            "beats/min",
            "61",
            61,
            "beats/min",
            "",
            "",
            "",
            1,
            3,
            "BASELINE",
            "SCREENING",
            "2013-10-08",
            1
          ],
          [
            238,
            "CDISCPILOT01",
            "VS",
            "CDISC004",
            42,
            "PULSE",
            "Pulse Rate",
            "STANDING",
            "68",
            "beats/min",
            "68",
            68,
            "beats/min",
            "",
            "",
            "",
            2,
            3,
            "BASELINE",
            "SCREENING",
            "2013-10-08",
            1
          ],
          [
            239,
            "CDISCPILOT01",
            "VS",
            "CDISC004",
            43,
            "PULSE",
            "Pulse Rate",
            "STANDING",
            "67",
            "beats/min",
            "67",
            67,
            "beats/min",
            "",
            "",
            "Y",
            3,
            3,
            "BASELINE",
            "SCREENING",
            "2013-10-08",
            1
          ],
          [
            240,
            "CDISCPILOT01",
            "VS",
            "CDISC004",
            44,
            "PULSE",
            "Pulse Rate",
            "SUPINE",
            "62",
            "beats/min",
            "62",
            62,
            "beats/min",
            "",
            "",
            "",
            1,
            4,
            "WEEK 2",
            "TREATMENT",
            "2013-10-24",
            17
          ],
          [
            241,
            "CDISCPILOT01",
            "VS",
            "CDISC004",
            45,
            "PULSE",
            "Pulse Rate",
            "STANDING",
            "73",
            "beats/min",
            "73",
            73,
            "beats/min",
            "",
            "",
            "",
            2,
            4,
            "WEEK 2",
            "TREATMENT",
            "2013-10-24",
            17
          ],
          [
            242,
            "CDISCPILOT01",
            "VS",
            "CDISC004",
            46,
            "PULSE",
            "Pulse Rate",
            "STANDING",
            "74",
            "beats/min",
            "74",
            74,
            "beats/min",
            "",
            "",
            "",
            3,
            4,
            "WEEK 2",
            "TREATMENT",
            "2013-10-24",
            17
          ],
          [
            243,
            "CDISCPILOT01",
            "VS",
            "CDISC004",
            47,
            "PULSE",
            "Pulse Rate",
            "SUPINE",
            "66",
            "beats/min",
            "66",
            66,
            "beats/min",
            "",
            "",
            "",
            1,
            5,
            "WEEK 4",
            "TREATMENT",
            "2013-11-08",
            32
          ],
          [
            244,
            "CDISCPILOT01",
            "VS",
            "CDISC004",
            48,
            "PULSE",
            "Pulse Rate",
            "STANDING",
            "87",
            "beats/min",
            "87",
            87,
            "beats/min",
            "",
            "",
            "",
            2,
            5,
            "WEEK 4",
            "TREATMENT",
            "2013-11-08",
            32
          ],
          [
            245,
            "CDISCPILOT01",
            "VS",
            "CDISC004",
            49,
            "PULSE",
            "Pulse Rate",
            "STANDING",
            "86",
            "beats/min",
            "86",
            86,
            "beats/min",
            "",
            "",
            "",
            3,
            5,
            "WEEK 4",
            "TREATMENT",
            "2013-11-08",
            32
          ],
          [
            246,
            "CDISCPILOT01",
            "VS",
            "CDISC004",
            50,
            "PULSE",
            "Pulse Rate",
            "SUPINE",
            "62",
            "beats/min",
            "62",
            62,
            "beats/min",
            "",
            "",
            "",
            1,
            7,
            "WEEK 6",
            "TREATMENT",
            "2013-11-19",
            43
          ],
          [
            247,
            "CDISCPILOT01",
            "VS",
            "CDISC004",
            51,
            "PULSE",
            "Pulse Rate",
            "STANDING",
            "66",
            "beats/min",
            "66",
            66,
            "beats/min",
            "",
            "",
            "",
            2,
            7,
            "WEEK 6",
            "TREATMENT",
            "2013-11-19",
            43
          ],
          [
            248,
            "CDISCPILOT01",
            "VS",
            "CDISC004",
            52,
            "PULSE",
            "Pulse Rate",
            "STANDING",
            "68",
            "beats/min",
            "68",
            68,
            "beats/min",
            "",
            "",
            "",
            3,
            7,
            "WEEK 6",
            "TREATMENT",
            "2013-11-19",
            43
          ],
          [
            249,
            "CDISCPILOT01",
            "VS",
            "CDISC004",
            53,
            "PULSE",
            "Pulse Rate",
            "SUPINE",
            "59",
            "beats/min",
            "59",
            59,
            "beats/min",
            "",
            "",
            "",
            1,
            8,
            "WEEK 8",
            "TREATMENT",
            "2013-12-03",
            57
          ],
          [
            250,
            "CDISCPILOT01",
            "VS",
            "CDISC004",
            54,
            "PULSE",
            "Pulse Rate",
            "STANDING",
            "79",
            "beats/min",
            "79",
            79,
            "beats/min",
            "",
            "",
            "",
            2,
            8,
            "WEEK 8",
            "TREATMENT",
            "2013-12-03",
            57
          ],
          [
            251,
            "CDISCPILOT01",
            "VS",
            "CDISC004",
            55,
            "PULSE",
            "Pulse Rate",
            "STANDING",
            "83",
            "beats/min",
            "83",
            83,
            "beats/min",
            "",
            "",
            "",
            3,
            8,
            "WEEK 8",
            "TREATMENT",
            "2013-12-03",
            57
          ],
          [
            252,
            "CDISCPILOT01",
            "VS",
            "CDISC004",
            56,
            "PULSE",
            "Pulse Rate",
            "SUPINE",
            "62",
            "beats/min",
            "62",
            62,
            "beats/min",
            "",
            "",
            "",
            1,
            9,
            "WEEK 12",
            "TREATMENT",
            "2013-12-31",
            85
          ],
          [
            253,
            "CDISCPILOT01",
            "VS",
            "CDISC004",
            57,
            "PULSE",
            "Pulse Rate",
            "STANDING",
            "67",
            "beats/min",
            "67",
            67,
            "beats/min",
            "",
            "",
            "",
            2,
            9,
            "WEEK 12",
            "TREATMENT",
            "2013-12-31",
            85
          ],
          [
            254,
            "CDISCPILOT01",
            "VS",
            "CDISC004",
            58,
            "PULSE",
            "Pulse Rate",
            "STANDING",
            "65",
            "beats/min",
            "65",
            65,
            "beats/min",
            "",
            "",
            "",
            3,
            9,
            "WEEK 12",
            "TREATMENT",
            "2013-12-31",
            85
          ],
          [
            255,
            "CDISCPILOT01",
            "VS",
            "CDISC004",
            59,
            "PULSE",
            "Pulse Rate",
            "SUPINE",
            "66",
            "beats/min",
            "66",
            66,
            "beats/min",
            "",
            "",
            "",
            1,
            10,
            "WEEK 16",
            "TREATMENT",
            "2014-01-27",
            112
          ],
          [
            256,
            "CDISCPILOT01",
            "VS",
            "CDISC004",
            60,
            "PULSE",
            "Pulse Rate",
            "STANDING",
            "79",
            "beats/min",
            "79",
            79,
            "beats/min",
            "",
            "",
            "",
            2,
            10,
            "WEEK 16",
            "TREATMENT",
            "2014-01-27",
            112
          ],
          [
            257,
            "CDISCPILOT01",
            "VS",
            "CDISC004",
            61,
            "PULSE",
            "Pulse Rate",
            "STANDING",
            "83",
            "beats/min",
            "83",
            83,
            "beats/min",
            "",
            "",
            "",
            3,
            10,
            "WEEK 16",
            "TREATMENT",
            "2014-01-27",
            112
          ],
          [
            258,
            "CDISCPILOT01",
            "VS",
            "CDISC004",
            62,
            "PULSE",
            "Pulse Rate",
            "SUPINE",
            "61",
            "beats/min",
            "61",
            61,
            "beats/min",
            "",
            "",
            "",
            1,
            11,
            "WEEK 20",
            "TREATMENT",
            "2014-02-25",
            141
          ],
          [
            259,
            "CDISCPILOT01",
            "VS",
            "CDISC004",
            63,
            "PULSE",
            "Pulse Rate",
            "STANDING",
            "74",
            "beats/min",
            "74",
            74,
            "beats/min",
            "",
            "",
            "",
            2,
            11,
            "WEEK 20",
            "TREATMENT",
            "2014-02-25",
            141
          ],
          [
            260,
            "CDISCPILOT01",
            "VS",
            "CDISC004",
            64,
            "PULSE",
            "Pulse Rate",
            "STANDING",
            "75",
            "beats/min",
            "75",
            75,
            "beats/min",
            "",
            "",
            "",
            3,
            11,
            "WEEK 20",
            "TREATMENT",
            "2014-02-25",
            141
          ],
          [
            261,
            "CDISCPILOT01",
            "VS",
            "CDISC004",
            65,
            "PULSE",
            "Pulse Rate",
            "SUPINE",
            "64",
            "beats/min",
            "64",
            64,
            "beats/min",
            "",
            "",
            "",
            1,
            12,
            "WEEK 24",
            "TREATMENT",
            "2014-03-18",
            162
          ],
          [
            262,
            "CDISCPILOT01",
            "VS",
            "CDISC004",
            66,
            "PULSE",
            "Pulse Rate",
            "STANDING",
            "82",
            "beats/min",
            "82",
            82,
            "beats/min",
            "",
            "",
            "",
            2,
            12,
            "WEEK 24",
            "TREATMENT",
            "2014-03-18",
            162
          ],
          [
            263,
            "CDISCPILOT01",
            "VS",
            "CDISC004",
            67,
            "PULSE",
            "Pulse Rate",
            "STANDING",
            "80",
            "beats/min",
            "80",
            80,
            "beats/min",
            "",
            "",
            "",
            3,
            12,
            "WEEK 24",
            "TREATMENT",
            "2014-03-18",
            162
          ],
          [
            264,
            "CDISCPILOT01",
            "VS",
            "CDISC004",
            68,
            "SYSBP",
            "Systolic Blood Pressure",
            "SUPINE",
            "112",
            "mmHg",
            "112",
            112,
            "mmHg",
            "",
            "",
            "",
            1,
            1,
            "SCREENING 1",
            "SCREENING",
            "2013-10-01",
            -7
          ],
          [
            265,
            "CDISCPILOT01",
            "VS",
            "CDISC004",
            69,
            "SYSBP",
            "Systolic Blood Pressure",
            "STANDING",
            "110",
            "mmHg",
            "110",
            110,
            "mmHg",
            "",
            "",
            "",
            2,
            1,
            "SCREENING 1",
            "SCREENING",
            "2013-10-01",
            -7
          ],
          [
            266,
            "CDISCPILOT01",
            "VS",
            "CDISC004",
            70,
            "SYSBP",
            "Systolic Blood Pressure",
            "STANDING",
            "119",
            "mmHg",
            "119",
            119,
            "mmHg",
            "",
            "",
            "",
            3,
            1,
            "SCREENING 1",
            "SCREENING",
            "2013-10-01",
            -7
          ],
          [
            267,
            "CDISCPILOT01",
            "VS",
            "CDISC004",
            71,
            "SYSBP",
            "Systolic Blood Pressure",
            "SUPINE",
            "130",
            "mmHg",
            "130",
            130,
            "mmHg",
            "",
            "",
            "",
            1,
            2,
            "SCREENING 2",
            "SCREENING",
            "2013-10-06",
            -2
          ],
          [
            268,
            "CDISCPILOT01",
            "VS",
            "CDISC004",
            72,
            "SYSBP",
            "Systolic Blood Pressure",
            "STANDING",
            "121",
            "mmHg",
            "121",
            121,
            "mmHg",
            "",
            "",
            "",
            2,
            2,
            "SCREENING 2",
            "SCREENING",
            "2013-10-06",
            -2
          ],
          [
            269,
            "CDISCPILOT01",
            "VS",
            "CDISC004",
            73,
            "SYSBP",
            "Systolic Blood Pressure",
            "STANDING",
            "115",
            "mmHg",
            "115",
            115,
            "mmHg",
            "",
            "",
            "",
            3,
            2,
            "SCREENING 2",
            "SCREENING",
            "2013-10-06",
            -2
          ],
          [
            270,
            "CDISCPILOT01",
            "VS",
            "CDISC004",
            74,
            "SYSBP",
            "Systolic Blood Pressure",
            "SUPINE",
            "126",
            "mmHg",
            "126",
            126,
            "mmHg",
            "",
            "",
            "",
            1,
            3,
            "BASELINE",
            "SCREENING",
            "2013-10-08",
            1
          ],
          [
            271,
            "CDISCPILOT01",
            "VS",
            "CDISC004",
            75,
            "SYSBP",
            "Systolic Blood Pressure",
            "STANDING",
            "108",
            "mmHg",
            "108",
            108,
            "mmHg",
            "",
            "",
            "",
            2,
            3,
            "BASELINE",
            "SCREENING",
            "2013-10-08",
            1
          ],
          [
            272,
            "CDISCPILOT01",
            "VS",
            "CDISC004",
            76,
            "SYSBP",
            "Systolic Blood Pressure",
            "STANDING",
            "116",
            "mmHg",
            "116",
            116,
            "mmHg",
            "",
            "",
            "Y",
            3,
            3,
            "BASELINE",
            "SCREENING",
            "2013-10-08",
            1
          ],
          [
            273,
            "CDISCPILOT01",
            "VS",
            "CDISC004",
            77,
            "SYSBP",
            "Systolic Blood Pressure",
            "SUPINE",
            "116",
            "mmHg",
            "116",
            116,
            "mmHg",
            "",
            "",
            "",
            1,
            4,
            "WEEK 2",
            "TREATMENT",
            "2013-10-24",
            17
          ],
          [
            274,
            "CDISCPILOT01",
            "VS",
            "CDISC004",
            78,
            "SYSBP",
            "Systolic Blood Pressure",
            "STANDING",
            "110",
            "mmHg",
            "110",
            110,
            "mmHg",
            "",
            "",
            "",
            2,
            4,
            "WEEK 2",
            "TREATMENT",
            "2013-10-24",
            17
          ],
          [
            275,
            "CDISCPILOT01",
            "VS",
            "CDISC004",
            79,
            "SYSBP",
            "Systolic Blood Pressure",
            "STANDING",
            "118",
            "mmHg",
            "118",
            118,
            "mmHg",
            "",
            "",
            "",
            3,
            4,
            "WEEK 2",
            "TREATMENT",
            "2013-10-24",
            17
          ],
          [
            276,
            "CDISCPILOT01",
            "VS",
            "CDISC004",
            80,
            "SYSBP",
            "Systolic Blood Pressure",
            "SUPINE",
            "113",
            "mmHg",
            "113",
            113,
            "mmHg",
            "",
            "",
            "",
            1,
            5,
            "WEEK 4",
            "TREATMENT",
            "2013-11-08",
            32
          ],
          [
            277,
            "CDISCPILOT01",
            "VS",
            "CDISC004",
            81,
            "SYSBP",
            "Systolic Blood Pressure",
            "STANDING",
            "106",
            "mmHg",
            "106",
            106,
            "mmHg",
            "",
            "",
            "",
            2,
            5,
            "WEEK 4",
            "TREATMENT",
            "2013-11-08",
            32
          ],
          [
            278,
            "CDISCPILOT01",
            "VS",
            "CDISC004",
            82,
            "SYSBP",
            "Systolic Blood Pressure",
            "STANDING",
            "123",
            "mmHg",
            "123",
            123,
            "mmHg",
            "",
            "",
            "",
            3,
            5,
            "WEEK 4",
            "TREATMENT",
            "2013-11-08",
            32
          ],
          [
            279,
            "CDISCPILOT01",
            "VS",
            "CDISC004",
            83,
            "SYSBP",
            "Systolic Blood Pressure",
            "SUPINE",
            "129",
            "mmHg",
            "129",
            129,
            "mmHg",
            "",
            "",
            "",
            1,
            7,
            "WEEK 6",
            "TREATMENT",
            "2013-11-19",
            43
          ],
          [
            280,
            "CDISCPILOT01",
            "VS",
            "CDISC004",
            84,
            "SYSBP",
            "Systolic Blood Pressure",
            "STANDING",
            "122",
            "mmHg",
            "122",
            122,
            "mmHg",
            "",
            "",
            "",
            2,
            7,
            "WEEK 6",
            "TREATMENT",
            "2013-11-19",
            43
          ],
          [
            281,
            "CDISCPILOT01",
            "VS",
            "CDISC004",
            85,
            "SYSBP",
            "Systolic Blood Pressure",
            "STANDING",
            "115",
            "mmHg",
            "115",
            115,
            "mmHg",
            "",
            "",
            "",
            3,
            7,
            "WEEK 6",
            "TREATMENT",
            "2013-11-19",
            43
          ],
          [
            282,
            "CDISCPILOT01",
            "VS",
            "CDISC004",
            86,
            "SYSBP",
            "Systolic Blood Pressure",
            "SUPINE",
            "115",
            "mmHg",
            "115",
            115,
            "mmHg",
            "",
            "",
            "",
            1,
            8,
            "WEEK 8",
            "TREATMENT",
            "2013-12-03",
            57
          ],
          [
            283,
            "CDISCPILOT01",
            "VS",
            "CDISC004",
            87,
            "SYSBP",
            "Systolic Blood Pressure",
            "STANDING",
            "105",
            "mmHg",
            "105",
            105,
            "mmHg",
            "",
            "",
            "",
            2,
            8,
            "WEEK 8",
            "TREATMENT",
            "2013-12-03",
            57
          ],
          [
            284,
            "CDISCPILOT01",
            "VS",
            "CDISC004",
            88,
            "SYSBP",
            "Systolic Blood Pressure",
            "STANDING",
            "108",
            "mmHg",
            "108",
            108,
            "mmHg",
            "",
            "",
            "",
            3,
            8,
            "WEEK 8",
            "TREATMENT",
            "2013-12-03",
            57
          ],
          [
            285,
            "CDISCPILOT01",
            "VS",
            "CDISC004",
            89,
            "SYSBP",
            "Systolic Blood Pressure",
            "SUPINE",
            "121",
            "mmHg",
            "121",
            121,
            "mmHg",
            "",
            "",
            "",
            1,
            9,
            "WEEK 12",
            "TREATMENT",
            "2013-12-31",
            85
          ],
          [
            286,
            "CDISCPILOT01",
            "VS",
            "CDISC004",
            90,
            "SYSBP",
            "Systolic Blood Pressure",
            "STANDING",
            "113",
            "mmHg",
            "113",
            113,
            "mmHg",
            "",
            "",
            "",
            2,
            9,
            "WEEK 12",
            "TREATMENT",
            "2013-12-31",
            85
          ],
          [
            287,
            "CDISCPILOT01",
            "VS",
            "CDISC004",
            91,
            "SYSBP",
            "Systolic Blood Pressure",
            "STANDING",
            "121",
            "mmHg",
            "121",
            121,
            "mmHg",
            "",
            "",
            "",
            3,
            9,
            "WEEK 12",
            "TREATMENT",
            "2013-12-31",
            85
          ],
          [
            288,
            "CDISCPILOT01",
            "VS",
            "CDISC004",
            92,
            "SYSBP",
            "Systolic Blood Pressure",
            "SUPINE",
            "120",
            "mmHg",
            "120",
            120,
            "mmHg",
            "",
            "",
            "",
            1,
            10,
            "WEEK 16",
            "TREATMENT",
            "2014-01-27",
            112
          ],
          [
            289,
            "CDISCPILOT01",
            "VS",
            "CDISC004",
            93,
            "SYSBP",
            "Systolic Blood Pressure",
            "STANDING",
            "114",
            "mmHg",
            "114",
            114,
            "mmHg",
            "",
            "",
            "",
            2,
            10,
            "WEEK 16",
            "TREATMENT",
            "2014-01-27",
            112
          ],
          [
            290,
            "CDISCPILOT01",
            "VS",
            "CDISC004",
            94,
            "SYSBP",
            "Systolic Blood Pressure",
            "STANDING",
            "123",
            "mmHg",
            "123",
            123,
            "mmHg",
            "",
            "",
            "",
            3,
            10,
            "WEEK 16",
            "TREATMENT",
            "2014-01-27",
            112
          ],
          [
            291,
            "CDISCPILOT01",
            "VS",
            "CDISC004",
            95,
            "SYSBP",
            "Systolic Blood Pressure",
            "SUPINE",
            "113",
            "mmHg",
            "113",
            113,
            "mmHg",
            "",
            "",
            "",
            1,
            11,
            "WEEK 20",
            "TREATMENT",
            "2014-02-25",
            141
          ],
          [
            292,
            "CDISCPILOT01",
            "VS",
            "CDISC004",
            96,
            "SYSBP",
            "Systolic Blood Pressure",
            "STANDING",
            "104",
            "mmHg",
            "104",
            104,
            "mmHg",
            "",
            "",
            "",
            2,
            11,
            "WEEK 20",
            "TREATMENT",
            "2014-02-25",
            141
          ],
          [
            293,
            "CDISCPILOT01",
            "VS",
            "CDISC004",
            97,
            "SYSBP",
            "Systolic Blood Pressure",
            "STANDING",
            "122",
            "mmHg",
            "122",
            122,
            "mmHg",
            "",
            "",
            "",
            3,
            11,
            "WEEK 20",
            "TREATMENT",
            "2014-02-25",
            141
          ],
          [
            294,
            "CDISCPILOT01",
            "VS",
            "CDISC004",
            98,
            "SYSBP",
            "Systolic Blood Pressure",
            "SUPINE",
            "122",
            "mmHg",
            "122",
            122,
            "mmHg",
            "",
            "",
            "",
            1,
            12,
            "WEEK 24",
            "TREATMENT",
            "2014-03-18",
            162
          ],
          [
            295,
            "CDISCPILOT01",
            "VS",
            "CDISC004",
            99,
            "SYSBP",
            "Systolic Blood Pressure",
            "STANDING",
            "120",
            "mmHg",
            "120",
            120,
            "mmHg",
            "",
            "",
            "",
            2,
            12,
            "WEEK 24",
            "TREATMENT",
            "2014-03-18",
            162
          ],
          [
            296,
            "CDISCPILOT01",
            "VS",
            "CDISC004",
            100,
            "SYSBP",
            "Systolic Blood Pressure",
            "STANDING",
            "113",
            "mmHg",
            "113",
            113,
            "mmHg",
            "",
            "",
            "",
            3,
            12,
            "WEEK 24",
            "TREATMENT",
            "2014-03-18",
            162
          ],
          [
            297,
            "CDISCPILOT01",
            "VS",
            "CDISC004",
            101,
            "TEMP",
            "Temperature",
            "",
            "98.5",
            "F",
            "36.94",
            36.94,
            "C",
            "",
            "ORAL CAVITY",
            "",
            null,
            1,
            "SCREENING 1",
            "SCREENING",
            "2013-10-01",
            -7
          ],
          [
            298,
            "CDISCPILOT01",
            "VS",
            "CDISC004",
            102,
            "TEMP",
            "Temperature",
            "",
            "98.0",
            "F",
            "36.67",
            36.67,
            "C",
            "",
            "ORAL CAVITY",
            "",
            null,
            2,
            "SCREENING 2",
            "SCREENING",
            "2013-10-06",
            -2
          ],
          [
            299,
            "CDISCPILOT01",
            "VS",
            "CDISC004",
            103,
            "TEMP",
            "Temperature",
            "",
            "97.6",
            "F",
            "36.44",
            36.44,
            "C",
            "",
            "ORAL CAVITY",
            "Y",
            null,
            3,
            "BASELINE",
            "SCREENING",
            "2013-10-08",
            1
          ],
          [
            300,
            "CDISCPILOT01",
            "VS",
            "CDISC004",
            104,
            "TEMP",
            "Temperature",
            "",
            "98.8",
            "F",
            "37.11",
            37.11,
            "C",
            "",
            "ORAL CAVITY",
            "",
            null,
            4,
            "WEEK 2",
            "TREATMENT",
            "2013-10-24",
            17
          ],
          [
            301,
            "CDISCPILOT01",
            "VS",
            "CDISC004",
            105,
            "TEMP",
            "Temperature",
            "",
            "98.9",
            "F",
            "37.17",
            37.17,
            "C",
            "",
            "ORAL CAVITY",
            "",
            null,
            5,
            "WEEK 4",
            "TREATMENT",
            "2013-11-08",
            32
          ],
          [
            302,
            "CDISCPILOT01",
            "VS",
            "CDISC004",
            106,
            "TEMP",
            "Temperature",
            "",
            "97.2",
            "F",
            "36.22",
            36.22,
            "C",
            "",
            "ORAL CAVITY",
            "",
            null,
            7,
            "WEEK 6",
            "TREATMENT",
            "2013-11-19",
            43
          ],
          [
            303,
            "CDISCPILOT01",
            "VS",
            "CDISC004",
            107,
            "TEMP",
            "Temperature",
            "",
            "98.9",
            "F",
            "37.17",
            37.17,
            "C",
            "",
            "ORAL CAVITY",
            "",
            null,
            8,
            "WEEK 8",
            "TREATMENT",
            "2013-12-03",
            57
          ],
          [
            304,
            "CDISCPILOT01",
            "VS",
            "CDISC004",
            108,
            "TEMP",
            "Temperature",
            "",
            "98.4",
            "F",
            "36.89",
            36.89,
            "C",
            "",
            "ORAL CAVITY",
            "",
            null,
            9,
            "WEEK 12",
            "TREATMENT",
            "2013-12-31",
            85
          ],
          [
            305,
            "CDISCPILOT01",
            "VS",
            "CDISC004",
            109,
            "TEMP",
            "Temperature",
            "",
            "97.7",
            "F",
            "36.5",
            36.5,
            "C",
            "",
            "ORAL CAVITY",
            "",
            null,
            10,
            "WEEK 16",
            "TREATMENT",
            "2014-01-27",
            112
          ],
          [
            306,
            "CDISCPILOT01",
            "VS",
            "CDISC004",
            110,
            "TEMP",
            "Temperature",
            "",
            "98.2",
            "F",
            "36.78",
            36.78,
            "C",
            "",
            "ORAL CAVITY",
            "",
            null,
            11,
            "WEEK 20",
            "TREATMENT",
            "2014-02-25",
            141
          ],
          [
            307,
            "CDISCPILOT01",
            "VS",
            "CDISC004",
            111,
            "TEMP",
            "Temperature",
            "",
            "97.8",
            "F",
            "36.56",
            36.56,
            "C",
            "",
            "ORAL CAVITY",
            "",
            null,
            12,
            "WEEK 24",
            "TREATMENT",
            "2014-03-18",
            162
          ],
          [
            308,
            "CDISCPILOT01",
            "VS",
            "CDISC004",
            112,
            "WEIGHT",
            "Weight",
            "",
            "123.0",
            "LB",
            "55.79",
            55.79,
            "kg",
            "",
            "",
            "",
            null,
            1,
            "SCREENING 1",
            "SCREENING",
            "2013-10-01",
            -7
          ],
          [
            309,
            "CDISCPILOT01",
            "VS",
            "CDISC004",
            113,
            "WEIGHT",
            "Weight",
            "",
            "124.0",
            "LB",
            "56.25",
            56.25,
            "kg",
            "",
            "",
            "Y",
            null,
            3,
            "BASELINE",
            "SCREENING",
            "2013-10-08",
            1
          ],
          [
            310,
            "CDISCPILOT01",
            "VS",
            "CDISC004",
            114,
            "WEIGHT",
            "Weight",
            "",
            "124.0",
            "LB",
            "56.25",
            56.25,
            "kg",
            "",
            "",
            "",
            null,
            4,
            "WEEK 2",
            "TREATMENT",
            "2013-10-24",
            17
          ],
          [
            311,
            "CDISCPILOT01",
            "VS",
            "CDISC004",
            115,
            "WEIGHT",
            "Weight",
            "",
            "124.0",
            "LB",
            "56.25",
            56.25,
            "kg",
            "",
            "",
            "",
            null,
            5,
            "WEEK 4",
            "TREATMENT",
            "2013-11-08",
            32
          ],
          [
            312,
            "CDISCPILOT01",
            "VS",
            "CDISC004",
            116,
            "WEIGHT",
            "Weight",
            "",
            "125.0",
            "LB",
            "56.7",
            56.7,
            "kg",
            "",
            "",
            "",
            null,
            7,
            "WEEK 6",
            "TREATMENT",
            "2013-11-19",
            43
          ],
          [
            313,
            "CDISCPILOT01",
            "VS",
            "CDISC004",
            117,
            "WEIGHT",
            "Weight",
            "",
            "124.0",
            "LB",
            "56.25",
            56.25,
            "kg",
            "",
            "",
            "",
            null,
            8,
            "WEEK 8",
            "TREATMENT",
            "2013-12-03",
            57
          ],
          [
            314,
            "CDISCPILOT01",
            "VS",
            "CDISC004",
            118,
            "WEIGHT",
            "Weight",
            "",
            "124.0",
            "LB",
            "56.25",
            56.25,
            "kg",
            "",
            "",
            "",
            null,
            9,
            "WEEK 12",
            "TREATMENT",
            "2013-12-31",
            85
          ],
          [
            315,
            "CDISCPILOT01",
            "VS",
            "CDISC004",
            119,
            "WEIGHT",
            "Weight",
            "",
            "125.0",
            "LB",
            "56.7",
            56.7,
            "kg",
            "",
            "",
            "",
            null,
            10,
            "WEEK 16",
            "TREATMENT",
            "2014-01-27",
            112
          ],
          [
            316,
            "CDISCPILOT01",
            "VS",
            "CDISC004",
            120,
            "WEIGHT",
            "Weight",
            "",
            "126.0",
            "LB",
            "57.15",
            57.15,
            "kg",
            "",
            "",
            "",
            null,
            11,
            "WEEK 20",
            "TREATMENT",
            "2014-02-25",
            141
          ],
          [
            317,
            "CDISCPILOT01",
            "VS",
            "CDISC004",
            121,
            "WEIGHT",
            "Weight",
            "",
            "126.0",
            "LB",
            "57.15",
            57.15,
            "kg",
            "",
            "",
            "",
            null,
            12,
            "WEEK 24",
            "TREATMENT",
            "2014-03-18",
            162
          ],
          [
            318,
            "CDISCPILOT01",
            "VS",
            "CDISC005",
            1,
            "DIABP",
            "Diastolic Blood Pressure",
            "SUPINE",
            "72",
            "mmHg",
            "72",
            72,
            "mmHg",
            "",
            "",
            "",
            1,
            1,
            "SCREENING 1",
            "SCREENING",
            "2013-01-22",
            -13
          ],
          [
            319,
            "CDISCPILOT01",
            "VS",
            "CDISC005",
            2,
            "DIABP",
            "Diastolic Blood Pressure",
            "STANDING",
            "66",
            "mmHg",
            "66",
            66,
            "mmHg",
            "",
            "",
            "",
            2,
            1,
            "SCREENING 1",
            "SCREENING",
            "2013-01-22",
            -13
          ],
          [
            320,
            "CDISCPILOT01",
            "VS",
            "CDISC005",
            3,
            "DIABP",
            "Diastolic Blood Pressure",
            "STANDING",
            "66",
            "mmHg",
            "66",
            66,
            "mmHg",
            "",
            "",
            "",
            3,
            1,
            "SCREENING 1",
            "SCREENING",
            "2013-01-22",
            -13
          ],
          [
            321,
            "CDISCPILOT01",
            "VS",
            "CDISC005",
            4,
            "DIABP",
            "Diastolic Blood Pressure",
            "SUPINE",
            "56",
            "mmHg",
            "56",
            56,
            "mmHg",
            "",
            "",
            "",
            1,
            2,
            "SCREENING 2",
            "SCREENING",
            "2013-02-02",
            -2
          ],
          [
            322,
            "CDISCPILOT01",
            "VS",
            "CDISC005",
            5,
            "DIABP",
            "Diastolic Blood Pressure",
            "STANDING",
            "71",
            "mmHg",
            "71",
            71,
            "mmHg",
            "",
            "",
            "",
            2,
            2,
            "SCREENING 2",
            "SCREENING",
            "2013-02-02",
            -2
          ],
          [
            323,
            "CDISCPILOT01",
            "VS",
            "CDISC005",
            6,
            "DIABP",
            "Diastolic Blood Pressure",
            "STANDING",
            "74",
            "mmHg",
            "74",
            74,
            "mmHg",
            "",
            "",
            "",
            3,
            2,
            "SCREENING 2",
            "SCREENING",
            "2013-02-02",
            -2
          ],
          [
            324,
            "CDISCPILOT01",
            "VS",
            "CDISC005",
            7,
            "DIABP",
            "Diastolic Blood Pressure",
            "SUPINE",
            "63",
            "mmHg",
            "63",
            63,
            "mmHg",
            "",
            "",
            "",
            1,
            3,
            "BASELINE",
            "SCREENING",
            "2013-02-04",
            1
          ],
          [
            325,
            "CDISCPILOT01",
            "VS",
            "CDISC005",
            8,
            "DIABP",
            "Diastolic Blood Pressure",
            "STANDING",
            "60",
            "mmHg",
            "60",
            60,
            "mmHg",
            "",
            "",
            "",
            2,
            3,
            "BASELINE",
            "SCREENING",
            "2013-02-04",
            1
          ],
          [
            326,
            "CDISCPILOT01",
            "VS",
            "CDISC005",
            9,
            "DIABP",
            "Diastolic Blood Pressure",
            "STANDING",
            "65",
            "mmHg",
            "65",
            65,
            "mmHg",
            "",
            "",
            "Y",
            3,
            3,
            "BASELINE",
            "SCREENING",
            "2013-02-04",
            1
          ],
          [
            327,
            "CDISCPILOT01",
            "VS",
            "CDISC005",
            10,
            "DIABP",
            "Diastolic Blood Pressure",
            "SUPINE",
            "66",
            "mmHg",
            "66",
            66,
            "mmHg",
            "",
            "",
            "",
            1,
            4,
            "WEEK 2",
            "TREATMENT",
            "2013-02-19",
            16
          ],
          [
            328,
            "CDISCPILOT01",
            "VS",
            "CDISC005",
            11,
            "DIABP",
            "Diastolic Blood Pressure",
            "STANDING",
            "56",
            "mmHg",
            "56",
            56,
            "mmHg",
            "",
            "",
            "",
            2,
            4,
            "WEEK 2",
            "TREATMENT",
            "2013-02-19",
            16
          ],
          [
            329,
            "CDISCPILOT01",
            "VS",
            "CDISC005",
            12,
            "DIABP",
            "Diastolic Blood Pressure",
            "STANDING",
            "66",
            "mmHg",
            "66",
            66,
            "mmHg",
            "",
            "",
            "",
            3,
            4,
            "WEEK 2",
            "TREATMENT",
            "2013-02-19",
            16
          ],
          [
            330,
            "CDISCPILOT01",
            "VS",
            "CDISC005",
            13,
            "DIABP",
            "Diastolic Blood Pressure",
            "SUPINE",
            "54",
            "mmHg",
            "54",
            54,
            "mmHg",
            "",
            "",
            "",
            1,
            5,
            "WEEK 4",
            "TREATMENT",
            "2013-03-12",
            37
          ],
          [
            331,
            "CDISCPILOT01",
            "VS",
            "CDISC005",
            14,
            "DIABP",
            "Diastolic Blood Pressure",
            "STANDING",
            "62",
            "mmHg",
            "62",
            62,
            "mmHg",
            "",
            "",
            "",
            2,
            5,
            "WEEK 4",
            "TREATMENT",
            "2013-03-12",
            37
          ],
          [
            332,
            "CDISCPILOT01",
            "VS",
            "CDISC005",
            15,
            "DIABP",
            "Diastolic Blood Pressure",
            "STANDING",
            "64",
            "mmHg",
            "64",
            64,
            "mmHg",
            "",
            "",
            "",
            3,
            5,
            "WEEK 4",
            "TREATMENT",
            "2013-03-12",
            37
          ],
          [
            333,
            "CDISCPILOT01",
            "VS",
            "CDISC005",
            16,
            "DIABP",
            "Diastolic Blood Pressure",
            "SUPINE",
            "64",
            "mmHg",
            "64",
            64,
            "mmHg",
            "",
            "",
            "",
            1,
            7,
            "WEEK 6",
            "TREATMENT",
            "2013-03-19",
            44
          ],
          [
            334,
            "CDISCPILOT01",
            "VS",
            "CDISC005",
            17,
            "DIABP",
            "Diastolic Blood Pressure",
            "STANDING",
            "54",
            "mmHg",
            "54",
            54,
            "mmHg",
            "",
            "",
            "",
            2,
            7,
            "WEEK 6",
            "TREATMENT",
            "2013-03-19",
            44
          ],
          [
            335,
            "CDISCPILOT01",
            "VS",
            "CDISC005",
            18,
            "DIABP",
            "Diastolic Blood Pressure",
            "STANDING",
            "60",
            "mmHg",
            "60",
            60,
            "mmHg",
            "",
            "",
            "",
            3,
            7,
            "WEEK 6",
            "TREATMENT",
            "2013-03-19",
            44
          ],
          [
            336,
            "CDISCPILOT01",
            "VS",
            "CDISC005",
            19,
            "DIABP",
            "Diastolic Blood Pressure",
            "SUPINE",
            "63",
            "mmHg",
            "63",
            63,
            "mmHg",
            "",
            "",
            "",
            1,
            8,
            "WEEK 8",
            "TREATMENT",
            "2013-04-02",
            58
          ],
          [
            337,
            "CDISCPILOT01",
            "VS",
            "CDISC005",
            20,
            "DIABP",
            "Diastolic Blood Pressure",
            "STANDING",
            "54",
            "mmHg",
            "54",
            54,
            "mmHg",
            "",
            "",
            "",
            2,
            8,
            "WEEK 8",
            "TREATMENT",
            "2013-04-02",
            58
          ],
          [
            338,
            "CDISCPILOT01",
            "VS",
            "CDISC005",
            21,
            "DIABP",
            "Diastolic Blood Pressure",
            "STANDING",
            "61",
            "mmHg",
            "61",
            61,
            "mmHg",
            "",
            "",
            "",
            3,
            8,
            "WEEK 8",
            "TREATMENT",
            "2013-04-02",
            58
          ],
          [
            339,
            "CDISCPILOT01",
            "VS",
            "CDISC005",
            22,
            "DIABP",
            "Diastolic Blood Pressure",
            "SUPINE",
            "56",
            "mmHg",
            "56",
            56,
            "mmHg",
            "",
            "",
            "",
            1,
            9,
            "WEEK 12",
            "TREATMENT",
            "2013-04-30",
            86
          ],
          [
            340,
            "CDISCPILOT01",
            "VS",
            "CDISC005",
            23,
            "DIABP",
            "Diastolic Blood Pressure",
            "STANDING",
            "60",
            "mmHg",
            "60",
            60,
            "mmHg",
            "",
            "",
            "",
            2,
            9,
            "WEEK 12",
            "TREATMENT",
            "2013-04-30",
            86
          ],
          [
            341,
            "CDISCPILOT01",
            "VS",
            "CDISC005",
            24,
            "DIABP",
            "Diastolic Blood Pressure",
            "STANDING",
            "60",
            "mmHg",
            "60",
            60,
            "mmHg",
            "",
            "",
            "",
            3,
            9,
            "WEEK 12",
            "TREATMENT",
            "2013-04-30",
            86
          ],
          [
            342,
            "CDISCPILOT01",
            "VS",
            "CDISC005",
            25,
            "DIABP",
            "Diastolic Blood Pressure",
            "SUPINE",
            "62",
            "mmHg",
            "62",
            62,
            "mmHg",
            "",
            "",
            "",
            1,
            10,
            "WEEK 16",
            "TREATMENT",
            "2013-05-30",
            116
          ],
          [
            343,
            "CDISCPILOT01",
            "VS",
            "CDISC005",
            26,
            "DIABP",
            "Diastolic Blood Pressure",
            "STANDING",
            "60",
            "mmHg",
            "60",
            60,
            "mmHg",
            "",
            "",
            "",
            2,
            10,
            "WEEK 16",
            "TREATMENT",
            "2013-05-30",
            116
          ],
          [
            344,
            "CDISCPILOT01",
            "VS",
            "CDISC005",
            27,
            "DIABP",
            "Diastolic Blood Pressure",
            "STANDING",
            "64",
            "mmHg",
            "64",
            64,
            "mmHg",
            "",
            "",
            "",
            3,
            10,
            "WEEK 16",
            "TREATMENT",
            "2013-05-30",
            116
          ],
          [
            345,
            "CDISCPILOT01",
            "VS",
            "CDISC005",
            28,
            "DIABP",
            "Diastolic Blood Pressure",
            "SUPINE",
            "58",
            "mmHg",
            "58",
            58,
            "mmHg",
            "",
            "",
            "",
            1,
            11,
            "WEEK 20",
            "TREATMENT",
            "2013-06-25",
            142
          ],
          [
            346,
            "CDISCPILOT01",
            "VS",
            "CDISC005",
            29,
            "DIABP",
            "Diastolic Blood Pressure",
            "STANDING",
            "54",
            "mmHg",
            "54",
            54,
            "mmHg",
            "",
            "",
            "",
            2,
            11,
            "WEEK 20",
            "TREATMENT",
            "2013-06-25",
            142
          ],
          [
            347,
            "CDISCPILOT01",
            "VS",
            "CDISC005",
            30,
            "DIABP",
            "Diastolic Blood Pressure",
            "STANDING",
            "66",
            "mmHg",
            "66",
            66,
            "mmHg",
            "",
            "",
            "",
            3,
            11,
            "WEEK 20",
            "TREATMENT",
            "2013-06-25",
            142
          ],
          [
            348,
            "CDISCPILOT01",
            "VS",
            "CDISC005",
            31,
            "DIABP",
            "Diastolic Blood Pressure",
            "SUPINE",
            "68",
            "mmHg",
            "68",
            68,
            "mmHg",
            "",
            "",
            "",
            1,
            12,
            "WEEK 24",
            "TREATMENT",
            "2013-07-30",
            177
          ],
          [
            349,
            "CDISCPILOT01",
            "VS",
            "CDISC005",
            32,
            "DIABP",
            "Diastolic Blood Pressure",
            "STANDING",
            "60",
            "mmHg",
            "60",
            60,
            "mmHg",
            "",
            "",
            "",
            2,
            12,
            "WEEK 24",
            "TREATMENT",
            "2013-07-30",
            177
          ],
          [
            350,
            "CDISCPILOT01",
            "VS",
            "CDISC005",
            33,
            "DIABP",
            "Diastolic Blood Pressure",
            "STANDING",
            "62",
            "mmHg",
            "62",
            62,
            "mmHg",
            "",
            "",
            "",
            3,
            12,
            "WEEK 24",
            "TREATMENT",
            "2013-07-30",
            177
          ],
          [
            351,
            "CDISCPILOT01",
            "VS",
            "CDISC005",
            34,
            "DIABP",
            "Diastolic Blood Pressure",
            "SUPINE",
            "62",
            "mmHg",
            "62",
            62,
            "mmHg",
            "",
            "",
            "",
            1,
            13,
            "WEEK 26",
            "TREATMENT",
            "2013-08-06",
            184
          ],
          [
            352,
            "CDISCPILOT01",
            "VS",
            "CDISC005",
            35,
            "DIABP",
            "Diastolic Blood Pressure",
            "STANDING",
            "56",
            "mmHg",
            "56",
            56,
            "mmHg",
            "",
            "",
            "",
            2,
            13,
            "WEEK 26",
            "TREATMENT",
            "2013-08-06",
            184
          ],
          [
            353,
            "CDISCPILOT01",
            "VS",
            "CDISC005",
            36,
            "DIABP",
            "Diastolic Blood Pressure",
            "STANDING",
            "59",
            "mmHg",
            "59",
            59,
            "mmHg",
            "",
            "",
            "",
            3,
            13,
            "WEEK 26",
            "TREATMENT",
            "2013-08-06",
            184
          ],
          [
            354,
            "CDISCPILOT01",
            "VS",
            "CDISC005",
            37,
            "HEIGHT",
            "Height",
            "",
            "64.5",
            "in",
            "163.83",
            163.83,
            "cm",
            "",
            "",
            "",
            null,
            1,
            "SCREENING 1",
            "SCREENING",
            "2013-01-22",
            -13
          ],
          [
            355,
            "CDISCPILOT01",
            "VS",
            "CDISC005",
            38,
            "PULSE",
            "Pulse Rate",
            "SUPINE",
            "70",
            "beats/min",
            "70",
            70,
            "beats/min",
            "",
            "",
            "",
            1,
            1,
            "SCREENING 1",
            "SCREENING",
            "2013-01-22",
            -13
          ],
          [
            356,
            "CDISCPILOT01",
            "VS",
            "CDISC005",
            39,
            "PULSE",
            "Pulse Rate",
            "STANDING",
            "77",
            "beats/min",
            "77",
            77,
            "beats/min",
            "",
            "",
            "",
            2,
            1,
            "SCREENING 1",
            "SCREENING",
            "2013-01-22",
            -13
          ],
          [
            357,
            "CDISCPILOT01",
            "VS",
            "CDISC005",
            40,
            "PULSE",
            "Pulse Rate",
            "STANDING",
            "80",
            "beats/min",
            "80",
            80,
            "beats/min",
            "",
            "",
            "",
            3,
            1,
            "SCREENING 1",
            "SCREENING",
            "2013-01-22",
            -13
          ],
          [
            358,
            "CDISCPILOT01",
            "VS",
            "CDISC005",
            41,
            "PULSE",
            "Pulse Rate",
            "SUPINE",
            "80",
            "beats/min",
            "80",
            80,
            "beats/min",
            "",
            "",
            "",
            1,
            2,
            "SCREENING 2",
            "SCREENING",
            "2013-02-02",
            -2
          ],
          [
            359,
            "CDISCPILOT01",
            "VS",
            "CDISC005",
            42,
            "PULSE",
            "Pulse Rate",
            "STANDING",
            "89",
            "beats/min",
            "89",
            89,
            "beats/min",
            "",
            "",
            "",
            2,
            2,
            "SCREENING 2",
            "SCREENING",
            "2013-02-02",
            -2
          ],
          [
            360,
            "CDISCPILOT01",
            "VS",
            "CDISC005",
            43,
            "PULSE",
            "Pulse Rate",
            "STANDING",
            "94",
            "beats/min",
            "94",
            94,
            "beats/min",
            "",
            "",
            "",
            3,
            2,
            "SCREENING 2",
            "SCREENING",
            "2013-02-02",
            -2
          ],
          [
            361,
            "CDISCPILOT01",
            "VS",
            "CDISC005",
            44,
            "PULSE",
            "Pulse Rate",
            "SUPINE",
            "77",
            "beats/min",
            "77",
            77,
            "beats/min",
            "",
            "",
            "",
            1,
            3,
            "BASELINE",
            "SCREENING",
            "2013-02-04",
            1
          ],
          [
            362,
            "CDISCPILOT01",
            "VS",
            "CDISC005",
            45,
            "PULSE",
            "Pulse Rate",
            "STANDING",
            "87",
            "beats/min",
            "87",
            87,
            "beats/min",
            "",
            "",
            "",
            2,
            3,
            "BASELINE",
            "SCREENING",
            "2013-02-04",
            1
          ],
          [
            363,
            "CDISCPILOT01",
            "VS",
            "CDISC005",
            46,
            "PULSE",
            "Pulse Rate",
            "STANDING",
            "89",
            "beats/min",
            "89",
            89,
            "beats/min",
            "",
            "",
            "Y",
            3,
            3,
            "BASELINE",
            "SCREENING",
            "2013-02-04",
            1
          ],
          [
            364,
            "CDISCPILOT01",
            "VS",
            "CDISC005",
            47,
            "PULSE",
            "Pulse Rate",
            "SUPINE",
            "84",
            "beats/min",
            "84",
            84,
            "beats/min",
            "",
            "",
            "",
            1,
            4,
            "WEEK 2",
            "TREATMENT",
            "2013-02-19",
            16
          ],
          [
            365,
            "CDISCPILOT01",
            "VS",
            "CDISC005",
            48,
            "PULSE",
            "Pulse Rate",
            "STANDING",
            "88",
            "beats/min",
            "88",
            88,
            "beats/min",
            "",
            "",
            "",
            2,
            4,
            "WEEK 2",
            "TREATMENT",
            "2013-02-19",
            16
          ],
          [
            366,
            "CDISCPILOT01",
            "VS",
            "CDISC005",
            49,
            "PULSE",
            "Pulse Rate",
            "STANDING",
            "88",
            "beats/min",
            "88",
            88,
            "beats/min",
            "",
            "",
            "",
            3,
            4,
            "WEEK 2",
            "TREATMENT",
            "2013-02-19",
            16
          ],
          [
            367,
            "CDISCPILOT01",
            "VS",
            "CDISC005",
            50,
            "PULSE",
            "Pulse Rate",
            "SUPINE",
            "70",
            "beats/min",
            "70",
            70,
            "beats/min",
            "",
            "",
            "",
            1,
            5,
            "WEEK 4",
            "TREATMENT",
            "2013-03-12",
            37
          ],
          [
            368,
            "CDISCPILOT01",
            "VS",
            "CDISC005",
            51,
            "PULSE",
            "Pulse Rate",
            "STANDING",
            "82",
            "beats/min",
            "82",
            82,
            "beats/min",
            "",
            "",
            "",
            2,
            5,
            "WEEK 4",
            "TREATMENT",
            "2013-03-12",
            37
          ],
          [
            369,
            "CDISCPILOT01",
            "VS",
            "CDISC005",
            52,
            "PULSE",
            "Pulse Rate",
            "STANDING",
            "78",
            "beats/min",
            "78",
            78,
            "beats/min",
            "",
            "",
            "",
            3,
            5,
            "WEEK 4",
            "TREATMENT",
            "2013-03-12",
            37
          ],
          [
            370,
            "CDISCPILOT01",
            "VS",
            "CDISC005",
            53,
            "PULSE",
            "Pulse Rate",
            "SUPINE",
            "80",
            "beats/min",
            "80",
            80,
            "beats/min",
            "",
            "",
            "",
            1,
            7,
            "WEEK 6",
            "TREATMENT",
            "2013-03-19",
            44
          ],
          [
            371,
            "CDISCPILOT01",
            "VS",
            "CDISC005",
            54,
            "PULSE",
            "Pulse Rate",
            "STANDING",
            "88",
            "beats/min",
            "88",
            88,
            "beats/min",
            "",
            "",
            "",
            2,
            7,
            "WEEK 6",
            "TREATMENT",
            "2013-03-19",
            44
          ],
          [
            372,
            "CDISCPILOT01",
            "VS",
            "CDISC005",
            55,
            "PULSE",
            "Pulse Rate",
            "STANDING",
            "86",
            "beats/min",
            "86",
            86,
            "beats/min",
            "",
            "",
            "",
            3,
            7,
            "WEEK 6",
            "TREATMENT",
            "2013-03-19",
            44
          ],
          [
            373,
            "CDISCPILOT01",
            "VS",
            "CDISC005",
            56,
            "PULSE",
            "Pulse Rate",
            "SUPINE",
            "70",
            "beats/min",
            "70",
            70,
            "beats/min",
            "",
            "",
            "",
            1,
            8,
            "WEEK 8",
            "TREATMENT",
            "2013-04-02",
            58
          ],
          [
            374,
            "CDISCPILOT01",
            "VS",
            "CDISC005",
            57,
            "PULSE",
            "Pulse Rate",
            "STANDING",
            "86",
            "beats/min",
            "86",
            86,
            "beats/min",
            "",
            "",
            "",
            2,
            8,
            "WEEK 8",
            "TREATMENT",
            "2013-04-02",
            58
          ],
          [
            375,
            "CDISCPILOT01",
            "VS",
            "CDISC005",
            58,
            "PULSE",
            "Pulse Rate",
            "STANDING",
            "81",
            "beats/min",
            "81",
            81,
            "beats/min",
            "",
            "",
            "",
            3,
            8,
            "WEEK 8",
            "TREATMENT",
            "2013-04-02",
            58
          ],
          [
            376,
            "CDISCPILOT01",
            "VS",
            "CDISC005",
            59,
            "PULSE",
            "Pulse Rate",
            "SUPINE",
            "63",
            "beats/min",
            "63",
            63,
            "beats/min",
            "",
            "",
            "",
            1,
            9,
            "WEEK 12",
            "TREATMENT",
            "2013-04-30",
            86
          ],
          [
            377,
            "CDISCPILOT01",
            "VS",
            "CDISC005",
            60,
            "PULSE",
            "Pulse Rate",
            "STANDING",
            "81",
            "beats/min",
            "81",
            81,
            "beats/min",
            "",
            "",
            "",
            2,
            9,
            "WEEK 12",
            "TREATMENT",
            "2013-04-30",
            86
          ],
          [
            378,
            "CDISCPILOT01",
            "VS",
            "CDISC005",
            61,
            "PULSE",
            "Pulse Rate",
            "STANDING",
            "76",
            "beats/min",
            "76",
            76,
            "beats/min",
            "",
            "",
            "",
            3,
            9,
            "WEEK 12",
            "TREATMENT",
            "2013-04-30",
            86
          ],
          [
            379,
            "CDISCPILOT01",
            "VS",
            "CDISC005",
            62,
            "PULSE",
            "Pulse Rate",
            "SUPINE",
            "70",
            "beats/min",
            "70",
            70,
            "beats/min",
            "",
            "",
            "",
            1,
            10,
            "WEEK 16",
            "TREATMENT",
            "2013-05-30",
            116
          ],
          [
            380,
            "CDISCPILOT01",
            "VS",
            "CDISC005",
            63,
            "PULSE",
            "Pulse Rate",
            "STANDING",
            "82",
            "beats/min",
            "82",
            82,
            "beats/min",
            "",
            "",
            "",
            2,
            10,
            "WEEK 16",
            "TREATMENT",
            "2013-05-30",
            116
          ],
          [
            381,
            "CDISCPILOT01",
            "VS",
            "CDISC005",
            64,
            "PULSE",
            "Pulse Rate",
            "STANDING",
            "78",
            "beats/min",
            "78",
            78,
            "beats/min",
            "",
            "",
            "",
            3,
            10,
            "WEEK 16",
            "TREATMENT",
            "2013-05-30",
            116
          ],
          [
            382,
            "CDISCPILOT01",
            "VS",
            "CDISC005",
            65,
            "PULSE",
            "Pulse Rate",
            "SUPINE",
            "73",
            "beats/min",
            "73",
            73,
            "beats/min",
            "",
            "",
            "",
            1,
            11,
            "WEEK 20",
            "TREATMENT",
            "2013-06-25",
            142
          ],
          [
            383,
            "CDISCPILOT01",
            "VS",
            "CDISC005",
            66,
            "PULSE",
            "Pulse Rate",
            "STANDING",
            "86",
            "beats/min",
            "86",
            86,
            "beats/min",
            "",
            "",
            "",
            2,
            11,
            "WEEK 20",
            "TREATMENT",
            "2013-06-25",
            142
          ],
          [
            384,
            "CDISCPILOT01",
            "VS",
            "CDISC005",
            67,
            "PULSE",
            "Pulse Rate",
            "STANDING",
            "85",
            "beats/min",
            "85",
            85,
            "beats/min",
            "",
            "",
            "",
            3,
            11,
            "WEEK 20",
            "TREATMENT",
            "2013-06-25",
            142
          ],
          [
            385,
            "CDISCPILOT01",
            "VS",
            "CDISC005",
            68,
            "PULSE",
            "Pulse Rate",
            "SUPINE",
            "92",
            "beats/min",
            "92",
            92,
            "beats/min",
            "",
            "",
            "",
            1,
            12,
            "WEEK 24",
            "TREATMENT",
            "2013-07-30",
            177
          ],
          [
            386,
            "CDISCPILOT01",
            "VS",
            "CDISC005",
            69,
            "PULSE",
            "Pulse Rate",
            "STANDING",
            "98",
            "beats/min",
            "98",
            98,
            "beats/min",
            "",
            "",
            "",
            2,
            12,
            "WEEK 24",
            "TREATMENT",
            "2013-07-30",
            177
          ],
          [
            387,
            "CDISCPILOT01",
            "VS",
            "CDISC005",
            70,
            "PULSE",
            "Pulse Rate",
            "STANDING",
            "96",
            "beats/min",
            "96",
            96,
            "beats/min",
            "",
            "",
            "",
            3,
            12,
            "WEEK 24",
            "TREATMENT",
            "2013-07-30",
            177
          ],
          [
            388,
            "CDISCPILOT01",
            "VS",
            "CDISC005",
            71,
            "PULSE",
            "Pulse Rate",
            "SUPINE",
            "79",
            "beats/min",
            "79",
            79,
            "beats/min",
            "",
            "",
            "",
            1,
            13,
            "WEEK 26",
            "TREATMENT",
            "2013-08-06",
            184
          ],
          [
            389,
            "CDISCPILOT01",
            "VS",
            "CDISC005",
            72,
            "PULSE",
            "Pulse Rate",
            "STANDING",
            "86",
            "beats/min",
            "86",
            86,
            "beats/min",
            "",
            "",
            "",
            2,
            13,
            "WEEK 26",
            "TREATMENT",
            "2013-08-06",
            184
          ],
          [
            390,
            "CDISCPILOT01",
            "VS",
            "CDISC005",
            73,
            "PULSE",
            "Pulse Rate",
            "STANDING",
            "88",
            "beats/min",
            "88",
            88,
            "beats/min",
            "",
            "",
            "",
            3,
            13,
            "WEEK 26",
            "TREATMENT",
            "2013-08-06",
            184
          ],
          [
            391,
            "CDISCPILOT01",
            "VS",
            "CDISC005",
            74,
            "SYSBP",
            "Systolic Blood Pressure",
            "SUPINE",
            "146",
            "mmHg",
            "146",
            146,
            "mmHg",
            "",
            "",
            "",
            1,
            1,
            "SCREENING 1",
            "SCREENING",
            "2013-01-22",
            -13
          ],
          [
            392,
            "CDISCPILOT01",
            "VS",
            "CDISC005",
            75,
            "SYSBP",
            "Systolic Blood Pressure",
            "STANDING",
            "146",
            "mmHg",
            "146",
            146,
            "mmHg",
            "",
            "",
            "",
            2,
            1,
            "SCREENING 1",
            "SCREENING",
            "2013-01-22",
            -13
          ],
          [
            393,
            "CDISCPILOT01",
            "VS",
            "CDISC005",
            76,
            "SYSBP",
            "Systolic Blood Pressure",
            "STANDING",
            "138",
            "mmHg",
            "138",
            138,
            "mmHg",
            "",
            "",
            "",
            3,
            1,
            "SCREENING 1",
            "SCREENING",
            "2013-01-22",
            -13
          ],
          [
            394,
            "CDISCPILOT01",
            "VS",
            "CDISC005",
            77,
            "SYSBP",
            "Systolic Blood Pressure",
            "SUPINE",
            "129",
            "mmHg",
            "129",
            129,
            "mmHg",
            "",
            "",
            "",
            1,
            2,
            "SCREENING 2",
            "SCREENING",
            "2013-02-02",
            -2
          ],
          [
            395,
            "CDISCPILOT01",
            "VS",
            "CDISC005",
            78,
            "SYSBP",
            "Systolic Blood Pressure",
            "STANDING",
            "136",
            "mmHg",
            "136",
            136,
            "mmHg",
            "",
            "",
            "",
            2,
            2,
            "SCREENING 2",
            "SCREENING",
            "2013-02-02",
            -2
          ],
          [
            396,
            "CDISCPILOT01",
            "VS",
            "CDISC005",
            79,
            "SYSBP",
            "Systolic Blood Pressure",
            "STANDING",
            "131",
            "mmHg",
            "131",
            131,
            "mmHg",
            "",
            "",
            "",
            3,
            2,
            "SCREENING 2",
            "SCREENING",
            "2013-02-02",
            -2
          ],
          [
            397,
            "CDISCPILOT01",
            "VS",
            "CDISC005",
            80,
            "SYSBP",
            "Systolic Blood Pressure",
            "SUPINE",
            "137",
            "mmHg",
            "137",
            137,
            "mmHg",
            "",
            "",
            "",
            1,
            3,
            "BASELINE",
            "SCREENING",
            "2013-02-04",
            1
          ],
          [
            398,
            "CDISCPILOT01",
            "VS",
            "CDISC005",
            81,
            "SYSBP",
            "Systolic Blood Pressure",
            "STANDING",
            "138",
            "mmHg",
            "138",
            138,
            "mmHg",
            "",
            "",
            "",
            2,
            3,
            "BASELINE",
            "SCREENING",
            "2013-02-04",
            1
          ],
          [
            399,
            "CDISCPILOT01",
            "VS",
            "CDISC005",
            82,
            "SYSBP",
            "Systolic Blood Pressure",
            "STANDING",
            "131",
            "mmHg",
            "131",
            131,
            "mmHg",
            "",
            "",
            "Y",
            3,
            3,
            "BASELINE",
            "SCREENING",
            "2013-02-04",
            1
          ],
          [
            400,
            "CDISCPILOT01",
            "VS",
            "CDISC005",
            83,
            "SYSBP",
            "Systolic Blood Pressure",
            "SUPINE",
            "138",
            "mmHg",
            "138",
            138,
            "mmHg",
            "",
            "",
            "",
            1,
            4,
            "WEEK 2",
            "TREATMENT",
            "2013-02-19",
            16
          ],
          [
            401,
            "CDISCPILOT01",
            "VS",
            "CDISC005",
            84,
            "SYSBP",
            "Systolic Blood Pressure",
            "STANDING",
            "130",
            "mmHg",
            "130",
            130,
            "mmHg",
            "",
            "",
            "",
            2,
            4,
            "WEEK 2",
            "TREATMENT",
            "2013-02-19",
            16
          ],
          [
            402,
            "CDISCPILOT01",
            "VS",
            "CDISC005",
            85,
            "SYSBP",
            "Systolic Blood Pressure",
            "STANDING",
            "138",
            "mmHg",
            "138",
            138,
            "mmHg",
            "",
            "",
            "",
            3,
            4,
            "WEEK 2",
            "TREATMENT",
            "2013-02-19",
            16
          ],
          [
            403,
            "CDISCPILOT01",
            "VS",
            "CDISC005",
            86,
            "SYSBP",
            "Systolic Blood Pressure",
            "SUPINE",
            "132",
            "mmHg",
            "132",
            132,
            "mmHg",
            "",
            "",
            "",
            1,
            5,
            "WEEK 4",
            "TREATMENT",
            "2013-03-12",
            37
          ],
          [
            404,
            "CDISCPILOT01",
            "VS",
            "CDISC005",
            87,
            "SYSBP",
            "Systolic Blood Pressure",
            "STANDING",
            "117",
            "mmHg",
            "117",
            117,
            "mmHg",
            "",
            "",
            "",
            2,
            5,
            "WEEK 4",
            "TREATMENT",
            "2013-03-12",
            37
          ],
          [
            405,
            "CDISCPILOT01",
            "VS",
            "CDISC005",
            88,
            "SYSBP",
            "Systolic Blood Pressure",
            "STANDING",
            "138",
            "mmHg",
            "138",
            138,
            "mmHg",
            "",
            "",
            "",
            3,
            5,
            "WEEK 4",
            "TREATMENT",
            "2013-03-12",
            37
          ],
          [
            406,
            "CDISCPILOT01",
            "VS",
            "CDISC005",
            89,
            "SYSBP",
            "Systolic Blood Pressure",
            "SUPINE",
            "129",
            "mmHg",
            "129",
            129,
            "mmHg",
            "",
            "",
            "",
            1,
            7,
            "WEEK 6",
            "TREATMENT",
            "2013-03-19",
            44
          ],
          [
            407,
            "CDISCPILOT01",
            "VS",
            "CDISC005",
            90,
            "SYSBP",
            "Systolic Blood Pressure",
            "STANDING",
            "129",
            "mmHg",
            "129",
            129,
            "mmHg",
            "",
            "",
            "",
            2,
            7,
            "WEEK 6",
            "TREATMENT",
            "2013-03-19",
            44
          ],
          [
            408,
            "CDISCPILOT01",
            "VS",
            "CDISC005",
            91,
            "SYSBP",
            "Systolic Blood Pressure",
            "STANDING",
            "129",
            "mmHg",
            "129",
            129,
            "mmHg",
            "",
            "",
            "",
            3,
            7,
            "WEEK 6",
            "TREATMENT",
            "2013-03-19",
            44
          ],
          [
            409,
            "CDISCPILOT01",
            "VS",
            "CDISC005",
            92,
            "SYSBP",
            "Systolic Blood Pressure",
            "SUPINE",
            "144",
            "mmHg",
            "144",
            144,
            "mmHg",
            "",
            "",
            "",
            1,
            8,
            "WEEK 8",
            "TREATMENT",
            "2013-04-02",
            58
          ],
          [
            410,
            "CDISCPILOT01",
            "VS",
            "CDISC005",
            93,
            "SYSBP",
            "Systolic Blood Pressure",
            "STANDING",
            "137",
            "mmHg",
            "137",
            137,
            "mmHg",
            "",
            "",
            "",
            2,
            8,
            "WEEK 8",
            "TREATMENT",
            "2013-04-02",
            58
          ],
          [
            411,
            "CDISCPILOT01",
            "VS",
            "CDISC005",
            94,
            "SYSBP",
            "Systolic Blood Pressure",
            "STANDING",
            "138",
            "mmHg",
            "138",
            138,
            "mmHg",
            "",
            "",
            "",
            3,
            8,
            "WEEK 8",
            "TREATMENT",
            "2013-04-02",
            58
          ],
          [
            412,
            "CDISCPILOT01",
            "VS",
            "CDISC005",
            95,
            "SYSBP",
            "Systolic Blood Pressure",
            "SUPINE",
            "114",
            "mmHg",
            "114",
            114,
            "mmHg",
            "",
            "",
            "",
            1,
            9,
            "WEEK 12",
            "TREATMENT",
            "2013-04-30",
            86
          ],
          [
            413,
            "CDISCPILOT01",
            "VS",
            "CDISC005",
            96,
            "SYSBP",
            "Systolic Blood Pressure",
            "STANDING",
            "122",
            "mmHg",
            "122",
            122,
            "mmHg",
            "",
            "",
            "",
            2,
            9,
            "WEEK 12",
            "TREATMENT",
            "2013-04-30",
            86
          ],
          [
            414,
            "CDISCPILOT01",
            "VS",
            "CDISC005",
            97,
            "SYSBP",
            "Systolic Blood Pressure",
            "STANDING",
            "122",
            "mmHg",
            "122",
            122,
            "mmHg",
            "",
            "",
            "",
            3,
            9,
            "WEEK 12",
            "TREATMENT",
            "2013-04-30",
            86
          ],
          [
            415,
            "CDISCPILOT01",
            "VS",
            "CDISC005",
            98,
            "SYSBP",
            "Systolic Blood Pressure",
            "SUPINE",
            "138",
            "mmHg",
            "138",
            138,
            "mmHg",
            "",
            "",
            "",
            1,
            10,
            "WEEK 16",
            "TREATMENT",
            "2013-05-30",
            116
          ],
          [
            416,
            "CDISCPILOT01",
            "VS",
